date	time	subject	blockcode	blocknum	trialcode	trialnum	values.cardoffered	values.groupnumber	values.defaultresponse	values.targetdeck	response	values.response	latency	values.forcedwins1	values.forcedwins2	values.forcedwins3	values.forcedwins4	values.gain	values.loss	values.netchange	expressions.feedback	values.currenttotal	expressions.percent_goodplay_block	values.number_goodplay_block	values.total_gooddeck_block	expressions.percent_badplay_block	values.number_badplay_block	values.total_baddeck_block	expressions.netscore_block	expressions.percent_goodplay	values.number_goodplay	values.total_gooddeck	expressions.percent_badplay	values.number_badplay	values.total_baddeck	expressions.netscore_total
111517	19:04:33	221119	igt	2	igt	1	1	1	1	3	38	1	2300	2	9	12	9	0	0	0	PASAR	2000	0	0	1	0	0	0	0	0	0	1	0	0	0	0
111517	19:04:33	221119	igt	2	igt	3	2	1	1	3	38	1	1456	2	9	12	9	0	0	0	PASAR	2000	0	0	2	0	0	0	0	0	0	2	0	0	0	0
111517	19:04:33	221119	igt	2	igt	5	3	1	1	2	30	2	486	2	8	12	9	100	0	100	Gana $<%abs(values.netchange)%>	2100	0	0	2	100	1	1	-100	0	0	2	100	1	1	-100
111517	19:04:33	221119	igt	2	igt	7	4	1	1	4	30	2	628	2	8	12	8	50	0	50	Gana $<%abs(values.netchange)%>	2150	33,3333333333333285964	1	3	100	1	1	-66,6666666666666714036	33,3333333333333285964	1	3	100	1	1	-66,6666666666666714036
111517	19:04:33	221119	igt	2	igt	9	5	1	1	1	30	2	433	1	8	12	8	100	0	100	Gana $<%abs(values.netchange)%>	2250	33,3333333333333285964	1	3	100	2	2	-66,6666666666666714036	33,3333333333333285964	1	3	100	2	2	-66,6666666666666714036
111517	19:04:33	221119	igt	2	igt	11	6	1	1	4	30	2	1185	1	8	12	7	50	0	50	Gana $<%abs(values.netchange)%>	2300	50	2	4	100	2	2	-50	50	2	4	100	2	2	-50
111517	19:04:33	221119	igt	2	igt	13	7	1	1	3	30	2	1453	1	8	11	7	50	0	50	Gana $<%abs(values.netchange)%>	2350	60	3	5	100	2	2	-40	60	3	5	100	2	2	-40
111517	19:04:33	221119	igt	2	igt	15	8	1	1	3	30	2	1345	1	8	10	7	50	0	50	Gana $<%abs(values.netchange)%>	2400	66,6666666666666571928	4	6	100	2	2	-33,3333333333333428072	66,6666666666666571928	4	6	100	2	2	-33,3333333333333428072
111517	19:04:33	221119	igt	2	igt	17	9	1	1	1	30	2	500	0	8	10	7	100	0	100	Gana $<%abs(values.netchange)%>	2500	66,6666666666666571928	4	6	100	3	3	-33,3333333333333428072	66,6666666666666571928	4	6	100	3	3	-33,3333333333333428072
111517	19:04:33	221119	igt	2	igt	19	10	1	1	3	30	2	1121	0	8	9	7	50	0	50	Gana $<%abs(values.netchange)%>	2550	71,4285714285714306016	5	7	100	3	3	-28,5714285714285693984	71,4285714285714306016	5	7	100	3	3	-28,5714285714285693984
111517	19:04:33	221119	igt	2	igt	21	11	1	1	1	30	2	483	-1	8	9	7	100	0	100	Gana $<%abs(values.netchange)%>	2650	71,4285714285714306016	5	7	100	4	4	-28,5714285714285693984	71,4285714285714306016	5	7	100	4	4	-28,5714285714285693984
111517	19:04:33	221119	igt	2	igt	23	12	1	1	2	30	2	915	-1	7	9	7	100	0	100	Gana $<%abs(values.netchange)%>	2750	71,4285714285714306016	5	7	100	5	5	-28,5714285714285693984	71,4285714285714306016	5	7	100	5	5	-28,5714285714285693984
111517	19:04:33	221119	igt	2	igt	25	13	1	1	4	30	2	653	-1	7	9	6	50	0	50	Gana $<%abs(values.netchange)%>	2800	75	6	8	100	5	5	-25	75	6	8	100	5	5	-25
111517	19:04:33	221119	igt	2	igt	27	14	1	1	4	30	2	437	-1	7	9	5	50	0	50	Gana $<%abs(values.netchange)%>	2850	77,7777777777777856727	7	9	100	5	5	-22,2222222222222143273	77,7777777777777856727	7	9	100	5	5	-22,2222222222222143273
111517	19:04:33	221119	igt	2	igt	29	15	1	1	2	30	2	460	-1	6	9	5	100	0	100	Gana $<%abs(values.netchange)%>	2950	77,7777777777777856727	7	9	100	6	6	-22,2222222222222143273	77,7777777777777856727	7	9	100	6	6	-22,2222222222222143273
111517	19:04:33	221119	igt	2	igt	31	16	1	1	1	30	2	673	-2	6	9	5	100	200	-100	Pierde $<%abs(values.netchange)%>	2850	77,7777777777777856727	7	9	100	7	7	-22,2222222222222143273	77,7777777777777856727	7	9	100	7	7	-22,2222222222222143273
111517	19:04:33	221119	igt	2	igt	33	17	1	1	2	30	2	1301	-2	5	9	5	100	0	100	Gana $<%abs(values.netchange)%>	2950	77,7777777777777856727	7	9	100	8	8	-22,2222222222222143273	77,7777777777777856727	7	9	100	8	8	-22,2222222222222143273
111517	19:04:33	221119	igt	2	igt	35	18	1	1	1	38	1	537	-2	5	9	5	0	0	0	PASAR	2950	77,7777777777777856727	7	9	88,8888888888888857309	8	9	-11,1111111111111000582	77,7777777777777856727	7	9	88,8888888888888857309	8	9	-11,1111111111111000582
111517	19:04:33	221119	igt	2	igt	37	19	1	1	2	30	2	656	-2	4	9	5	100	0	100	Gana $<%abs(values.netchange)%>	3050	77,7777777777777856727	7	9	90	9	10	-12,2222222222222143273	77,7777777777777856727	7	9	90	9	10	-12,2222222222222143273
111517	19:04:33	221119	igt	2	igt	39	20	1	1	4	30	2	806	-2	4	9	4	50	0	50	Gana $<%abs(values.netchange)%>	3100	80	8	10	90	9	10	-10	80	8	10	90	9	10	-10
111517	19:04:33	221119	igt	3	igt	1	21	1	1	1	38	1	2242	-2	4	9	4	0	0	0	PASAR	3100	0	0	0	0	0	1	0	80	8	10	81,8181818181818272251	9	11	-1,8181818181818272251
111517	19:04:33	221119	igt	3	igt	3	22	1	1	4	30	2	602	-2	4	9	3	50	0	50	Gana $<%abs(values.netchange)%>	3150	100	1	1	0	0	1	100	81,8181818181818272251	9	11	81,8181818181818272251	9	11	0
111517	19:04:33	221119	igt	3	igt	5	23	1	1	2	30	2	810	-2	3	9	3	100	0	100	Gana $<%abs(values.netchange)%>	3250	100	1	1	50	1	2	50	81,8181818181818272251	9	11	83,3333333333333428072	10	12	-1,5151515151515155821
111517	19:04:33	221119	igt	3	igt	7	24	1	1	3	38	1	979	-2	3	9	3	0	0	0	PASAR	3250	50	1	2	50	1	2	0	75	9	12	83,3333333333333428072	10	12	-8,3333333333333428072
111517	19:04:33	221119	igt	3	igt	9	25	1	1	4	30	2	881	-2	3	9	2	50	0	50	Gana $<%abs(values.netchange)%>	3300	66,6666666666666571928	2	3	50	1	2	16,6666666666666571928	76,9230769230769340083	10	13	83,3333333333333428072	10	12	-6,4102564102564087989
111517	19:04:33	221119	igt	3	igt	11	26	1	1	2	30	2	1000	-2	2	9	2	100	0	100	Gana $<%abs(values.netchange)%>	3400	66,6666666666666571928	2	3	66,6666666666666571928	2	3	0	76,9230769230769340083	10	13	84,6153846153846131983	11	13	-7,69230769230767919
111517	19:04:33	221119	igt	3	igt	13	27	1	1	1	30	2	1227	-3	2	9	2	100	350	-250	Pierde $<%abs(values.netchange)%>	3150	66,6666666666666571928	2	3	75	3	4	-8,3333333333333428072	76,9230769230769340083	10	13	85,7142857142857081953	12	14	-8,791208791208774187
111517	19:04:33	221119	igt	3	igt	15	28	1	1	1	38	1	950	-3	2	9	2	0	0	0	PASAR	3150	66,6666666666666571928	2	3	60	3	5	6,6666666666666571928	76,9230769230769340083	10	13	80	12	15	-3,0769230769230659917
111517	19:04:33	221119	igt	3	igt	17	29	1	1	4	30	2	682	-3	2	9	1	50	0	50	Gana $<%abs(values.netchange)%>	3200	75	3	4	60	3	5	15	78,5714285714285693984	11	14	80	12	15	-1,4285714285714306016
111517	19:04:33	221119	igt	3	igt	19	30	1	1	1	30	2	736	-4	2	9	1	100	150	-50	Pierde $<%abs(values.netchange)%>	3150	75	3	4	66,6666666666666571928	4	6	8,3333333333333428072	78,5714285714285693984	11	14	81,25	13	16	-2,6785714285714306016
111517	19:04:33	221119	igt	3	igt	21	31	1	1	4	30	2	1602	-4	2	9	0	50	0	50	Gana $<%abs(values.netchange)%>	3200	80	4	5	66,6666666666666571928	4	6	13,3333333333333428072	80	12	15	81,25	13	16	-1,25
111517	19:04:33	221119	igt	3	igt	23	32	1	1	1	38	1	422	-4	2	9	0	0	0	0	PASAR	3200	80	4	5	57,1428571428571387969	4	7	22,8571428571428612031	80	12	15	76,4705882352941159752	13	17	3,5294117647058840248
111517	19:04:33	221119	igt	3	igt	25	33	1	1	2	30	2	615	-4	1	9	0	100	0	100	Gana $<%abs(values.netchange)%>	3300	80	4	5	62,5	5	8	17,5	80	12	15	77,7777777777777856727	14	18	2,2222222222222143273
111517	19:04:33	221119	igt	3	igt	27	34	1	1	3	38	1	775	-4	1	9	0	0	0	0	PASAR	3300	66,6666666666666571928	4	6	62,5	5	8	4,1666666666666571928	75	12	16	77,7777777777777856727	14	18	-2,7777777777777856727
111517	19:04:33	221119	igt	3	igt	29	35	1	1	4	30	2	637	-4	1	9	-1	50	0	50	Gana $<%abs(values.netchange)%>	3350	71,4285714285714306016	5	7	62,5	5	8	8,9285714285714306016	76,4705882352941159752	13	17	77,7777777777777856727	14	18	-1,3071895424836696975
111517	19:04:33	221119	igt	3	igt	31	36	1	1	3	30	2	826	-4	1	8	-1	50	0	50	Gana $<%abs(values.netchange)%>	3400	75	6	8	62,5	5	8	12,5	77,7777777777777856727	14	18	77,7777777777777856727	14	18	0
111517	19:04:33	221119	igt	3	igt	33	37	1	1	2	30	2	453	-4	0	8	-1	100	0	100	Gana $<%abs(values.netchange)%>	3500	75	6	8	66,6666666666666571928	6	9	8,3333333333333428072	77,7777777777777856727	14	18	78,9473684210526300831	15	19	-1,1695906432748444104
111517	19:04:33	221119	igt	3	igt	35	38	1	1	3	30	2	725	-4	0	7	-1	50	0	50	Gana $<%abs(values.netchange)%>	3550	77,7777777777777856727	7	9	66,6666666666666571928	6	9	11,1111111111111284799	78,9473684210526300831	15	19	78,9473684210526300831	15	19	0
111517	19:04:33	221119	igt	3	igt	37	39	1	1	3	30	2	668	-4	0	6	-1	50	0	50	Gana $<%abs(values.netchange)%>	3600	80	8	10	66,6666666666666571928	6	9	13,3333333333333428072	80	16	20	78,9473684210526300831	15	19	1,0526315789473699169
111517	19:04:33	221119	igt	3	igt	39	40	1	1	2	30	2	517	-4	-1	6	-1	100	0	100	Gana $<%abs(values.netchange)%>	3700	80	8	10	70	7	10	10	80	16	20	80	16	20	0
111517	19:04:33	221119	igt	4	igt	1	41	1	1	2	38	1	1327	-4	-1	6	-1	0	0	0	PASAR	3700	0	0	0	0	0	1	0	80	16	20	76,1904761904761897995	16	21	3,8095238095238102005
111517	19:04:33	221119	igt	4	igt	3	42	1	1	4	30	2	599	-4	-1	6	-2	50	0	50	Gana $<%abs(values.netchange)%>	3750	100	1	1	0	0	1	100	80,9523809523809489974	17	21	76,1904761904761897995	16	21	4,7619047619047591979
111517	19:04:33	221119	igt	4	igt	5	43	1	1	2	30	2	586	-4	-2	6	-2	100	0	100	Gana $<%abs(values.netchange)%>	3850	100	1	1	50	1	2	50	80,9523809523809489974	17	21	77,2727272727272662678	17	22	3,6796536796536827296
111517	19:04:33	221119	igt	4	igt	7	44	1	1	1	30	2	414	-5	-2	6	-2	100	0	100	Gana $<%abs(values.netchange)%>	3950	100	1	1	66,6666666666666571928	2	3	33,3333333333333428072	80,9523809523809489974	17	21	78,2608695652173906865	18	23	2,6915113871635583109
111517	19:04:33	221119	igt	4	igt	9	45	1	1	2	30	2	832	-5	-3	6	-2	100	0	100	Gana $<%abs(values.netchange)%>	4050	100	1	1	75	3	4	25	80,9523809523809489974	17	21	79,1666666666666571928	19	24	1,7857142857142918047
111517	19:04:33	221119	igt	4	igt	11	46	1	1	4	30	2	790	-5	-3	6	-3	50	0	50	Gana $<%abs(values.netchange)%>	4100	100	2	2	75	3	4	25	81,8181818181818272251	18	22	79,1666666666666571928	19	24	2,6515151515151700323
111517	19:04:33	221119	igt	4	igt	13	47	1	1	4	30	2	502	-5	-3	6	-4	50	0	50	Gana $<%abs(values.netchange)%>	4150	100	3	3	75	3	4	25	82,6086956521739068648	19	23	79,1666666666666571928	19	24	3,4420289855072496721
111517	19:04:33	221119	igt	4	igt	15	48	1	1	1	30	2	535	-6	-3	6	-4	100	0	100	Gana $<%abs(values.netchange)%>	4250	100	3	3	80	4	5	20	82,6086956521739068648	19	23	80	20	25	2,6086956521739068648
111517	19:04:33	221119	igt	4	igt	17	49	1	1	2	30	2	431	-6	-4	6	-4	100	0	100	Gana $<%abs(values.netchange)%>	4350	100	3	3	83,3333333333333428072	5	6	16,6666666666666571928	82,6086956521739068648	19	23	80,7692307692307736033	21	26	1,8394648829431332615
111517	19:04:33	221119	igt	4	igt	19	50	1	1	2	30	2	632	-6	-5	6	-4	100	0	100	Gana $<%abs(values.netchange)%>	4450	100	3	3	85,7142857142857081953	6	7	14,2857142857142918047	82,6086956521739068648	19	23	81,4814814814814809552	22	27	1,1272141706924259097
111517	19:04:33	221119	igt	4	igt	21	51	1	1	4	30	2	608	-6	-5	6	-5	50	0	50	Gana $<%abs(values.netchange)%>	4500	100	4	4	85,7142857142857081953	6	7	14,2857142857142918047	83,3333333333333428072	20	24	81,4814814814814809552	22	27	1,8518518518518618521
111517	19:04:33	221119	igt	4	igt	23	52	1	1	3	30	2	891	-6	-5	5	-5	50	0	50	Gana $<%abs(values.netchange)%>	4550	100	5	5	85,7142857142857081953	6	7	14,2857142857142918047	84	21	25	81,4814814814814809552	22	27	2,5185185185185190448
111517	19:04:33	221119	igt	4	igt	25	53	1	1	3	30	2	418	-6	-5	4	-5	50	0	50	Gana $<%abs(values.netchange)%>	4600	100	6	6	85,7142857142857081953	6	7	14,2857142857142918047	84,6153846153846131983	22	26	81,4814814814814809552	22	27	3,1339031339031322432
111517	19:04:33	221119	igt	4	igt	27	54	1	1	1	30	2	601	-7	-5	4	-5	100	250	-150	Pierde $<%abs(values.netchange)%>	4450	100	6	6	87,5	7	8	12,5	84,6153846153846131983	22	26	82,1428571428571387969	23	28	2,4725274725274744014
111517	19:04:33	221119	igt	4	igt	29	55	1	1	3	30	2	892	-7	-5	3	-5	50	0	50	Gana $<%abs(values.netchange)%>	4500	100	7	7	87,5	7	8	12,5	85,1851851851851904485	23	27	82,1428571428571387969	23	28	3,0423280423280516516
111517	19:04:33	221119	igt	4	igt	31	56	1	1	3	30	2	607	-7	-5	2	-5	50	0	50	Gana $<%abs(values.netchange)%>	4550	100	8	8	87,5	7	8	12,5	85,7142857142857081953	24	28	82,1428571428571387969	23	28	3,5714285714285693984
111517	19:04:33	221119	igt	4	igt	33	57	1	1	1	38	1	480	-7	-5	2	-5	0	0	0	PASAR	4550	100	8	8	77,7777777777777856727	7	9	22,2222222222222143273	85,7142857142857081953	24	28	79,3103448275862064065	23	29	6,4039408866995017888
111517	19:04:33	221119	igt	4	igt	35	58	1	1	1	30	2	710	-8	-5	2	-5	100	300	-200	Pierde $<%abs(values.netchange)%>	4350	100	8	8	80	8	10	20	85,7142857142857081953	24	28	80	24	30	5,7142857142857081953
111517	19:04:33	221119	igt	4	igt	37	59	1	1	4	38	1	647	-8	-5	2	-5	0	0	0	PASAR	4350	88,8888888888888857309	8	9	80	8	10	8,8888888888888857309	82,7586206896551743739	24	29	80	24	30	2,7586206896551743739
111517	19:04:33	221119	igt	4	igt	39	60	1	1	3	38	1	553	-8	-5	2	-5	0	0	0	PASAR	4350	80	8	10	80	8	10	0	80	24	30	80	24	30	0
111517	19:04:33	221119	igt	5	igt	1	61	1	1	3	30	2	930	-8	-5	1	-5	50	0	50	Gana $<%abs(values.netchange)%>	4400	100	1	1	0	0	0	100	80,6451612903225765194	25	31	80	24	30	0,6451612903225765194
111517	19:04:33	221119	igt	5	igt	3	62	1	1	4	30	2	499	-8	-5	1	-6	50	0	50	Gana $<%abs(values.netchange)%>	4450	100	2	2	0	0	0	100	81,25	26	32	80	24	30	1,25
111517	19:04:33	221119	igt	5	igt	5	63	1	1	4	38	1	1175	-8	-5	1	-6	0	0	0	PASAR	4450	66,6666666666666571928	2	3	0	0	0	66,6666666666666571928	78,7878787878787818499	26	33	80	24	30	-1,2121212121212181501
111517	19:04:33	221119	igt	5	igt	7	64	1	1	2	30	2	625	-8	-6	1	-6	100	0	100	Gana $<%abs(values.netchange)%>	4550	66,6666666666666571928	2	3	100	1	1	-33,3333333333333428072	78,7878787878787818499	26	33	80,6451612903225765194	25	31	-1,8572825024437946695
111517	19:04:33	221119	igt	5	igt	9	65	1	1	4	30	2	576	-8	-6	1	-7	50	0	50	Gana $<%abs(values.netchange)%>	4600	75	3	4	100	1	1	-25	79,4117647058823479256	27	34	80,6451612903225765194	25	31	-1,2333965844402285938
111517	19:04:33	221119	igt	5	igt	11	66	1	1	1	38	1	911	-8	-6	1	-7	0	0	0	PASAR	4600	75	3	4	50	1	2	25	79,4117647058823479256	27	34	78,125	25	32	1,2867647058823479256
111517	19:04:33	221119	igt	5	igt	13	67	1	1	3	30	2	419	-8	-6	0	-7	50	0	50	Gana $<%abs(values.netchange)%>	4650	80	4	5	50	1	2	30	80	28	35	78,125	25	32	1,875
111517	19:04:33	221119	igt	5	igt	15	68	1	1	4	30	2	654	-8	-6	0	-8	50	0	50	Gana $<%abs(values.netchange)%>	4700	83,3333333333333428072	5	6	50	1	2	33,3333333333333428072	80,5555555555555571345	29	36	78,125	25	32	2,4305555555555571345
111517	19:04:33	221119	igt	5	igt	17	69	1	1	2	30	2	511	-8	-7	0	-8	100	0	100	Gana $<%abs(values.netchange)%>	4800	83,3333333333333428072	5	6	66,6666666666666571928	2	3	16,6666666666666856145	80,5555555555555571345	29	36	78,7878787878787818499	26	33	1,7676767676767752846
111517	19:04:33	221119	igt	5	igt	19	70	1	1	2	30	2	768	-8	-8	0	-8	100	1250	-1150	Pierde $<%abs(values.netchange)%>	3650	83,3333333333333428072	5	6	75	3	4	8,3333333333333428072	80,5555555555555571345	29	36	79,4117647058823479256	27	34	1,143790849673209209
111517	19:04:33	221119	igt	5	igt	21	71	1	1	1	30	2	500	-9	-8	0	-8	100	0	100	Gana $<%abs(values.netchange)%>	3750	83,3333333333333428072	5	6	80	4	5	3,3333333333333428072	80,5555555555555571345	29	36	80	28	35	0,5555555555555571345
111517	19:04:33	221119	igt	5	igt	23	72	1	1	1	30	2	404	-10	-8	0	-8	100	0	100	Gana $<%abs(values.netchange)%>	3850	83,3333333333333428072	5	6	83,3333333333333428072	5	6	0	80,5555555555555571345	29	36	80,5555555555555571345	29	36	0
111517	19:04:33	221119	igt	5	igt	25	73	1	1	1	30	2	357	-11	-8	0	-8	100	350	-250	Pierde $<%abs(values.netchange)%>	3600	83,3333333333333428072	5	6	85,7142857142857081953	6	7	-2,3809523809523653881	80,5555555555555571345	29	36	81,081081081081080697	30	37	-0,5255255255255235625
111517	19:04:33	221119	igt	5	igt	27	74	1	1	2	38	1	658	-11	-8	0	-8	0	0	0	PASAR	3600	83,3333333333333428072	5	6	75	6	8	8,3333333333333428072	80,5555555555555571345	29	36	78,9473684210526300831	30	38	1,6081871345029270515
111517	19:04:33	221119	igt	5	igt	29	75	1	1	2	30	2	545	-11	-9	0	-8	100	0	100	Gana $<%abs(values.netchange)%>	3700	83,3333333333333428072	5	6	77,7777777777777856727	7	9	5,5555555555555571345	80,5555555555555571345	29	36	79,4871794871794890014	31	39	1,0683760683760681331
111517	19:04:33	221119	igt	5	igt	31	76	1	1	3	30	2	656	-11	-9	-1	-8	50	50	0	No gana ni pierde dinero	3700	85,7142857142857081953	6	7	77,7777777777777856727	7	9	7,9365079365079225227	81,081081081081080697	30	37	79,4871794871794890014	31	39	1,5939015939015916956
111517	19:04:33	221119	igt	5	igt	33	77	1	1	1	30	2	623	-12	-9	-1	-8	100	250	-150	Pierde $<%abs(values.netchange)%>	3550	85,7142857142857081953	6	7	80	8	10	5,7142857142857081953	81,081081081081080697	30	37	80	32	40	1,081081081081080697
111517	19:04:33	221119	igt	5	igt	35	78	1	1	3	38	1	561	-12	-9	-1	-8	0	0	0	PASAR	3550	75	6	8	80	8	10	-5	78,9473684210526300831	30	38	80	32	40	-1,0526315789473699169
111517	19:04:33	221119	igt	5	igt	37	79	1	1	3	30	2	726	-12	-9	-2	-8	50	0	50	Gana $<%abs(values.netchange)%>	3600	77,7777777777777856727	7	9	80	8	10	-2,2222222222222143273	79,4871794871794890014	31	39	80	32	40	-0,5128205128205109986
111517	19:04:33	221119	igt	5	igt	39	80	1	1	4	30	2	640	-12	-9	-2	-9	50	250	-200	Pierde $<%abs(values.netchange)%>	3400	80	8	10	80	8	10	0	80	32	40	80	32	40	0
111517	19:04:33	221119	igt	6	igt	1	81	1	1	1	30	2	997	-13	-9	-2	-9	100	150	-50	Pierde $<%abs(values.netchange)%>	3350	0	0	0	100	1	1	-100	80	32	40	80,4878048780487915792	33	41	-0,4878048780487915792
111517	19:04:33	221119	igt	6	igt	3	82	1	1	3	30	2	694	-13	-9	-3	-9	50	0	50	Gana $<%abs(values.netchange)%>	3400	100	1	1	100	1	1	0	80,4878048780487915792	33	41	80,4878048780487915792	33	41	0
111517	19:04:33	221119	igt	6	igt	5	83	1	1	3	30	2	391	-13	-9	-4	-9	50	75	-25	Pierde $<%abs(values.netchange)%>	3375	100	2	2	100	1	1	0	80,9523809523809489974	34	42	80,4878048780487915792	33	41	0,4645760743321574182
111517	19:04:33	221119	igt	6	igt	7	84	1	1	2	38	1	688	-13	-9	-4	-9	0	0	0	PASAR	3375	100	2	2	50	1	2	50	80,9523809523809489974	34	42	78,5714285714285693984	33	42	2,380952380952379599
111517	19:04:33	221119	igt	6	igt	9	85	1	1	3	38	1	376	-13	-9	-4	-9	0	0	0	PASAR	3375	66,6666666666666571928	2	3	50	1	2	16,6666666666666571928	79,0697674418604634639	34	43	78,5714285714285693984	33	42	0,4983388704318940654
111517	19:04:33	221119	igt	6	igt	11	86	1	1	3	38	1	342	-13	-9	-4	-9	0	0	0	PASAR	3375	50	2	4	50	1	2	0	77,2727272727272662678	34	44	78,5714285714285693984	33	42	-1,2987012987013031307
111517	19:04:33	221119	igt	6	igt	13	87	1	1	1	30	2	523	-14	-9	-4	-9	100	300	-200	Pierde $<%abs(values.netchange)%>	3175	50	2	4	66,6666666666666571928	2	3	-16,6666666666666571928	77,2727272727272662678	34	44	79,0697674418604634639	34	43	-1,7970401691331971961
111517	19:04:33	221119	igt	6	igt	15	88	1	1	1	30	2	806	-15	-9	-4	-9	100	0	100	Gana $<%abs(values.netchange)%>	3275	50	2	4	75	3	4	-25	77,2727272727272662678	34	44	79,5454545454545467464	35	44	-2,2727272727272804786
111517	19:04:33	221119	igt	6	igt	17	89	1	1	2	30	2	434	-15	-10	-4	-9	100	0	100	Gana $<%abs(values.netchange)%>	3375	50	2	4	80	4	5	-30	77,2727272727272662678	34	44	80	36	45	-2,7272727272727337322
111517	19:04:33	221119	igt	6	igt	19	90	1	1	2	30	2	423	-15	-11	-4	-9	100	0	100	Gana $<%abs(values.netchange)%>	3475	50	2	4	83,3333333333333428072	5	6	-33,3333333333333428072	77,2727272727272662678	34	44	80,4347826086956558811	37	46	-3,1620553359683896133
111517	19:04:33	221119	igt	6	igt	21	91	1	1	4	30	2	661	-15	-11	-4	-10	50	0	50	Gana $<%abs(values.netchange)%>	3525	60	3	5	83,3333333333333428072	5	6	-23,3333333333333428072	77,7777777777777856727	35	45	80,4347826086956558811	37	46	-2,6570048309178702084
111517	19:04:33	221119	igt	6	igt	23	92	1	1	4	30	2	381	-15	-11	-4	-11	50	250	-200	Pierde $<%abs(values.netchange)%>	3325	66,6666666666666571928	4	6	83,3333333333333428072	5	6	-16,6666666666666856145	78,2608695652173906865	36	46	80,4347826086956558811	37	46	-2,1739130434782651946
111517	19:04:33	221119	igt	6	igt	25	93	1	1	1	30	2	513	-16	-11	-4	-11	100	0	100	Gana $<%abs(values.netchange)%>	3425	66,6666666666666571928	4	6	85,7142857142857081953	6	7	-19,0476190476190510026	78,2608695652173906865	36	46	80,8510638297872219482	38	47	-2,5901942645698312617
111517	19:04:33	221119	igt	6	igt	27	94	1	1	1	38	1	462	-16	-11	-4	-11	0	0	0	PASAR	3425	66,6666666666666571928	4	6	75	6	8	-8,3333333333333428072	78,2608695652173906865	36	46	79,1666666666666571928	38	48	-0,9057971014492665063
111517	19:04:33	221119	igt	6	igt	29	95	1	1	3	30	2	821	-16	-11	-5	-11	50	0	50	Gana $<%abs(values.netchange)%>	3475	71,4285714285714306016	5	7	75	6	8	-3,5714285714285693984	78,7234042553191528668	37	47	79,1666666666666571928	38	48	-0,4432624113475043259
111517	19:04:33	221119	igt	6	igt	31	96	1	1	4	38	1	1273	-16	-11	-5	-11	0	0	0	PASAR	3475	62,5	5	8	75	6	8	-12,5	77,0833333333333428072	37	48	79,1666666666666571928	38	48	-2,0833333333333143855
111517	19:04:33	221119	igt	6	igt	33	97	1	1	4	38	1	638	-16	-11	-5	-11	0	0	0	PASAR	3475	55,5555555555555571345	5	9	75	6	8	-19,4444444444444428655	75,5102040816326507411	37	49	79,1666666666666571928	38	48	-3,6564625850340064517
111517	19:04:33	221119	igt	6	igt	35	98	1	1	2	30	2	658	-16	-12	-5	-11	100	0	100	Gana $<%abs(values.netchange)%>	3575	55,5555555555555571345	5	9	77,7777777777777856727	7	9	-22,2222222222222285382	75,5102040816326507411	37	49	79,5918367346938708806	39	49	-4,0816326530612201395
111517	19:04:33	221119	igt	6	igt	37	99	1	1	4	38	1	881	-16	-12	-5	-11	0	0	0	PASAR	3575	50	5	10	77,7777777777777856727	7	9	-27,7777777777777856727	74	37	50	79,5918367346938708806	39	49	-5,5918367346938708806
111517	19:04:33	221119	igt	6	igt	39	100	1	1	2	30	2	795	-16	-13	-5	-11	100	1250	-1150	Pierde $<%abs(values.netchange)%>	2425	50	5	10	80	8	10	-30	74	37	50	80	40	50	-6
111517	19:04:33	221119	igt	7	igt	1	101	1	1	3	30	2	1137	-16	-13	-6	-11	50	75	-25	Pierde $<%abs(values.netchange)%>	2400	100	1	1	0	0	0	100	74,5098039215686327452	38	51	80	40	50	-5,4901960784313672548
111517	19:04:33	221119	igt	7	igt	3	102	1	1	1	38	1	625	-16	-13	-6	-11	0	0	0	PASAR	2400	100	1	1	0	0	1	100	74,5098039215686327452	38	51	78,431372549019613416	40	51	-3,9215686274509806708
111517	19:04:33	221119	igt	7	igt	5	103	1	1	1	38	1	220	-16	-13	-6	-11	0	0	0	PASAR	2400	100	1	1	0	0	2	100	74,5098039215686327452	38	51	76,9230769230769340083	40	52	-2,4132730015083012631
111517	19:04:33	221119	igt	7	igt	7	104	1	1	4	38	1	155	-16	-13	-6	-11	0	0	0	PASAR	2400	50	1	2	0	0	2	50	73,0769230769230659917	38	52	76,9230769230769340083	40	52	-3,8461538461538680167
111517	19:04:33	221119	igt	7	igt	9	105	1	1	3	30	2	722	-16	-13	-7	-11	50	50	0	No gana ni pierde dinero	2400	66,6666666666666571928	2	3	0	0	2	66,6666666666666571928	73,5849056603773590268	39	53	76,9230769230769340083	40	52	-3,3381712626995749815
111517	19:04:33	221119	igt	7	igt	11	106	1	1	4	30	2	599	-16	-13	-7	-12	50	0	50	Gana $<%abs(values.netchange)%>	2450	75	3	4	0	0	2	75	74,0740740740740761794	40	54	76,9230769230769340083	40	52	-2,849002849002857829
111517	19:04:33	221119	igt	7	igt	13	107	1	1	4	30	2	523	-16	-13	-7	-13	50	0	50	Gana $<%abs(values.netchange)%>	2500	80	4	5	0	0	2	80	74,5454545454545467464	41	55	76,9230769230769340083	40	52	-2,3776223776223872619
111517	19:04:33	221119	igt	7	igt	15	108	1	1	3	30	2	391	-16	-13	-8	-13	50	0	50	Gana $<%abs(values.netchange)%>	2550	83,3333333333333428072	5	6	0	0	2	83,3333333333333428072	75	42	56	76,9230769230769340083	40	52	-1,9230769230769340083
111517	19:04:33	221119	igt	7	igt	17	109	1	1	1	38	1	922	-16	-13	-8	-13	0	0	0	PASAR	2550	83,3333333333333428072	5	6	0	0	3	83,3333333333333428072	75	42	56	75,471698113207551728	40	53	-0,471698113207551728
111517	19:04:33	221119	igt	7	igt	19	110	1	1	2	30	2	531	-16	-14	-8	-13	100	0	100	Gana $<%abs(values.netchange)%>	2650	83,3333333333333428072	5	6	25	1	4	58,3333333333333428072	75	42	56	75,9259259259259238206	41	54	-0,9259259259259238206
111517	19:04:33	221119	igt	7	igt	21	111	1	1	1	30	2	418	-17	-14	-8	-13	100	0	100	Gana $<%abs(values.netchange)%>	2750	83,3333333333333428072	5	6	40	2	5	43,3333333333333428072	75	42	56	76,3636363636363739715	42	55	-1,3636363636363739715
111517	19:04:33	221119	igt	7	igt	23	112	1	1	1	30	2	457	-18	-14	-8	-13	100	0	100	Gana $<%abs(values.netchange)%>	2850	83,3333333333333428072	5	6	50	3	6	33,3333333333333428072	75	42	56	76,7857142857142918047	43	56	-1,7857142857142918047
111517	19:04:33	221119	igt	7	igt	25	113	1	1	2	38	1	581	-18	-14	-8	-13	0	0	0	PASAR	2850	83,3333333333333428072	5	6	42,8571428571428540977	3	7	40,4761904761904887096	75	42	56	75,4385964912280684302	43	57	-0,4385964912280684302
111517	19:04:33	221119	igt	7	igt	27	114	1	1	2	38	1	467	-18	-14	-8	-13	0	0	0	PASAR	2850	83,3333333333333428072	5	6	37,5	3	8	45,8333333333333428072	75	42	56	74,1379310344827615609	43	58	0,8620689655172384391
111517	19:04:33	221119	igt	7	igt	29	115	1	1	3	30	2	474	-18	-14	-9	-13	50	0	50	Gana $<%abs(values.netchange)%>	2900	85,7142857142857081953	6	7	37,5	3	8	48,2142857142857081953	75,4385964912280684302	43	57	74,1379310344827615609	43	58	1,3006654567453068694
111517	19:04:33	221119	igt	7	igt	31	116	1	1	2	30	2	727	-18	-15	-9	-13	100	0	100	Gana $<%abs(values.netchange)%>	3000	85,7142857142857081953	6	7	44,4444444444444428655	4	9	41,2698412698412653299	75,4385964912280684302	43	57	74,576271186440678207	44	59	0,8623253047873902233
111517	19:04:33	221119	igt	7	igt	33	117	1	1	4	30	2	432	-18	-15	-9	-14	50	0	50	Gana $<%abs(values.netchange)%>	3050	87,5	7	8	44,4444444444444428655	4	9	43,0555555555555571345	75,8620689655172384391	44	58	74,576271186440678207	44	59	1,2857977790765602322
111517	19:04:33	221119	igt	7	igt	35	118	1	1	3	38	1	478	-18	-15	-9	-14	0	0	0	PASAR	3050	77,7777777777777856727	7	9	44,4444444444444428655	4	9	33,3333333333333428072	74,576271186440678207	44	59	74,576271186440678207	44	59	0
111517	19:04:33	221119	igt	7	igt	37	119	1	1	2	30	2	464	-18	-16	-9	-14	100	0	100	Gana $<%abs(values.netchange)%>	3150	77,7777777777777856727	7	9	50	5	10	27,7777777777777856727	74,576271186440678207	44	59	75	45	60	-0,423728813559321793
111517	19:04:33	221119	igt	7	igt	39	120	1	1	4	30	2	1239	-18	-16	-9	-15	50	0	50	Gana $<%abs(values.netchange)%>	3200	80	8	10	50	5	10	30	75	45	60	75	45	60	0
