date	time	subject	blockcode	blocknum	trialcode	trialnum	values.cardoffered	values.groupnumber	values.defaultresponse	values.targetdeck	response	values.response	latency	values.forcedwins1	values.forcedwins2	values.forcedwins3	values.forcedwins4	values.gain	values.loss	values.netchange	expressions.feedback	values.currenttotal	expressions.percent_goodplay_block	values.number_goodplay_block	values.total_gooddeck_block	expressions.percent_badplay_block	values.number_badplay_block	values.total_baddeck_block	expressions.netscore_block	expressions.percent_goodplay	values.number_goodplay	values.total_gooddeck	expressions.percent_badplay	values.number_badplay	values.total_baddeck	expressions.netscore_total
111517	19:36:44	222124	igt	2	igt	1	1	3	1	4	30	2	2345	2	9	12	8	50	0	50	Gana $<%abs(values.netchange)%>	2050	100	1	1	0	0	0	100	100	1	1	0	0	0	100
111517	19:36:44	222124	igt	2	igt	3	2	3	1	4	30	2	1136	2	9	12	7	50	0	50	Gana $<%abs(values.netchange)%>	2100	100	2	2	0	0	0	100	100	2	2	0	0	0	100
111517	19:36:44	222124	igt	2	igt	5	3	3	1	4	30	2	413	2	9	12	6	50	0	50	Gana $<%abs(values.netchange)%>	2150	100	3	3	0	0	0	100	100	3	3	0	0	0	100
111517	19:36:44	222124	igt	2	igt	7	4	3	1	2	38	1	1187	2	9	12	6	0	0	0	PASAR	2150	100	3	3	0	0	1	100	100	3	3	0	0	1	100
111517	19:36:44	222124	igt	2	igt	9	5	3	1	2	30	2	416	2	8	12	6	100	0	100	Gana $<%abs(values.netchange)%>	2250	100	3	3	50	1	2	50	100	3	3	50	1	2	50
111517	19:36:44	222124	igt	2	igt	11	6	3	1	1	30	2	402	1	8	12	6	100	0	100	Gana $<%abs(values.netchange)%>	2350	100	3	3	66,6666666666666571928	2	3	33,3333333333333428072	100	3	3	66,6666666666666571928	2	3	33,3333333333333428072
111517	19:36:44	222124	igt	2	igt	13	7	3	1	2	30	2	271	1	7	12	6	100	0	100	Gana $<%abs(values.netchange)%>	2450	100	3	3	75	3	4	25	100	3	3	75	3	4	25
111517	19:36:44	222124	igt	2	igt	15	8	3	1	3	30	2	222	1	7	11	6	50	0	50	Gana $<%abs(values.netchange)%>	2500	100	4	4	75	3	4	25	100	4	4	75	3	4	25
111517	19:36:44	222124	igt	2	igt	17	9	3	1	3	38	1	461	1	7	11	6	0	0	0	PASAR	2500	80	4	5	75	3	4	5	80	4	5	75	3	4	5
111517	19:36:44	222124	igt	2	igt	19	10	3	1	1	30	2	598	0	7	11	6	100	0	100	Gana $<%abs(values.netchange)%>	2600	80	4	5	80	4	5	0	80	4	5	80	4	5	0
111517	19:36:44	222124	igt	2	igt	21	11	3	1	3	30	2	307	0	7	10	6	50	0	50	Gana $<%abs(values.netchange)%>	2650	83,3333333333333428072	5	6	80	4	5	3,3333333333333428072	83,3333333333333428072	5	6	80	4	5	3,3333333333333428072
111517	19:36:44	222124	igt	2	igt	23	12	3	1	4	30	2	275	0	7	10	5	50	0	50	Gana $<%abs(values.netchange)%>	2700	85,7142857142857081953	6	7	80	4	5	5,7142857142857081953	85,7142857142857081953	6	7	80	4	5	5,7142857142857081953
111517	19:36:44	222124	igt	2	igt	25	13	3	1	4	30	2	376	0	7	10	4	50	0	50	Gana $<%abs(values.netchange)%>	2750	87,5	7	8	80	4	5	7,5	87,5	7	8	80	4	5	7,5
111517	19:36:44	222124	igt	2	igt	27	14	3	1	3	30	2	1217	0	7	9	4	50	0	50	Gana $<%abs(values.netchange)%>	2800	88,8888888888888857309	8	9	80	4	5	8,8888888888888857309	88,8888888888888857309	8	9	80	4	5	8,8888888888888857309
111517	19:36:44	222124	igt	2	igt	29	15	3	1	1	38	1	501	0	7	9	4	0	0	0	PASAR	2800	88,8888888888888857309	8	9	66,6666666666666571928	4	6	22,2222222222222285382	88,8888888888888857309	8	9	66,6666666666666571928	4	6	22,2222222222222285382
111517	19:36:44	222124	igt	2	igt	31	16	3	1	1	30	2	248	-1	7	9	4	100	0	100	Gana $<%abs(values.netchange)%>	2900	88,8888888888888857309	8	9	71,4285714285714306016	5	7	17,4603174603174551294	88,8888888888888857309	8	9	71,4285714285714306016	5	7	17,4603174603174551294
111517	19:36:44	222124	igt	2	igt	33	17	3	1	2	30	2	334	-1	6	9	4	100	0	100	Gana $<%abs(values.netchange)%>	3000	88,8888888888888857309	8	9	75	6	8	13,8888888888888857309	88,8888888888888857309	8	9	75	6	8	13,8888888888888857309
111517	19:36:44	222124	igt	2	igt	35	18	3	1	2	30	2	389	-1	5	9	4	100	0	100	Gana $<%abs(values.netchange)%>	3100	88,8888888888888857309	8	9	77,7777777777777856727	7	9	11,1111111111111000582	88,8888888888888857309	8	9	77,7777777777777856727	7	9	11,1111111111111000582
111517	19:36:44	222124	igt	2	igt	37	19	3	1	1	30	2	362	-2	5	9	4	100	250	-150	Pierde $<%abs(values.netchange)%>	2950	88,8888888888888857309	8	9	80	8	10	8,8888888888888857309	88,8888888888888857309	8	9	80	8	10	8,8888888888888857309
111517	19:36:44	222124	igt	2	igt	39	20	3	1	3	30	2	580	-2	5	8	4	50	0	50	Gana $<%abs(values.netchange)%>	3000	90	9	10	80	8	10	10	90	9	10	80	8	10	10
111517	19:36:44	222124	igt	3	igt	1	21	3	1	1	30	2	352	-3	5	8	4	100	0	100	Gana $<%abs(values.netchange)%>	3100	0	0	0	100	1	1	-100	90	9	10	81,8181818181818272251	9	11	8,1818181818181727749
111517	19:36:44	222124	igt	3	igt	3	22	3	1	3	30	2	319	-3	5	7	4	50	0	50	Gana $<%abs(values.netchange)%>	3150	100	1	1	100	1	1	0	90,9090909090909065071	10	11	81,8181818181818272251	9	11	9,090909090909079282
111517	19:36:44	222124	igt	3	igt	5	23	3	1	1	38	1	314	-3	5	7	4	0	0	0	PASAR	3150	100	1	1	50	1	2	50	90,9090909090909065071	10	11	75	9	12	15,9090909090909065071
111517	19:36:44	222124	igt	3	igt	7	24	3	1	3	30	2	370	-3	5	6	4	50	0	50	Gana $<%abs(values.netchange)%>	3200	100	2	2	50	1	2	50	91,6666666666666571928	11	12	75	9	12	16,6666666666666571928
111517	19:36:44	222124	igt	3	igt	9	25	3	1	2	38	1	890	-3	5	6	4	0	0	0	PASAR	3200	100	2	2	33,3333333333333285964	1	3	66,6666666666666714036	91,6666666666666571928	11	12	69,2307692307692263967	9	13	22,4358974358974307961
111517	19:36:44	222124	igt	3	igt	11	26	3	1	3	30	2	325	-3	5	5	4	50	0	50	Gana $<%abs(values.netchange)%>	3250	100	3	3	33,3333333333333285964	1	3	66,6666666666666714036	92,3076923076923065992	12	13	69,2307692307692263967	9	13	23,0769230769230802025
111517	19:36:44	222124	igt	3	igt	13	27	3	1	3	30	2	287	-3	5	4	4	50	0	50	Gana $<%abs(values.netchange)%>	3300	100	4	4	33,3333333333333285964	1	3	66,6666666666666714036	92,8571428571428612031	13	14	69,2307692307692263967	9	13	23,6263736263736348064
111517	19:36:44	222124	igt	3	igt	15	28	3	1	2	30	2	329	-3	4	4	4	100	0	100	Gana $<%abs(values.netchange)%>	3400	100	4	4	50	2	4	50	92,8571428571428612031	13	14	71,4285714285714306016	10	14	21,4285714285714306016
111517	19:36:44	222124	igt	3	igt	17	29	3	1	1	30	2	317	-4	4	4	4	100	200	-100	Pierde $<%abs(values.netchange)%>	3300	100	4	4	60	3	5	40	92,8571428571428612031	13	14	73,3333333333333285964	11	15	19,5238095238095326067
111517	19:36:44	222124	igt	3	igt	19	30	3	1	2	38	1	431	-4	4	4	4	0	0	0	PASAR	3300	100	4	4	50	3	6	50	92,8571428571428612031	13	14	68,75	11	16	24,1071428571428612031
111517	19:36:44	222124	igt	3	igt	21	31	3	1	2	30	2	274	-4	3	4	4	100	0	100	Gana $<%abs(values.netchange)%>	3400	100	4	4	57,1428571428571387969	4	7	42,8571428571428612031	92,8571428571428612031	13	14	70,5882352941176520744	12	17	22,2689075630252091287
111517	19:36:44	222124	igt	3	igt	23	32	3	1	4	30	2	303	-4	3	4	3	50	0	50	Gana $<%abs(values.netchange)%>	3450	100	5	5	57,1428571428571387969	4	7	42,8571428571428612031	93,3333333333333285964	14	15	70,5882352941176520744	12	17	22,745098039215676522
111517	19:36:44	222124	igt	3	igt	25	33	3	1	4	30	2	302	-4	3	4	2	50	0	50	Gana $<%abs(values.netchange)%>	3500	100	6	6	57,1428571428571387969	4	7	42,8571428571428612031	93,75	15	16	70,5882352941176520744	12	17	23,1617647058823479256
111517	19:36:44	222124	igt	3	igt	27	34	3	1	1	30	2	270	-5	3	4	2	100	0	100	Gana $<%abs(values.netchange)%>	3600	100	6	6	62,5	5	8	37,5	93,75	15	16	72,2222222222222143273	13	18	21,5277777777777856727
111517	19:36:44	222124	igt	3	igt	29	35	3	1	4	38	1	312	-5	3	4	2	0	0	0	PASAR	3600	85,7142857142857081953	6	7	62,5	5	8	23,2142857142857081953	88,2352941176470579876	15	17	72,2222222222222143273	13	18	16,0130718954248436603
111517	19:36:44	222124	igt	3	igt	31	36	3	1	2	30	2	375	-5	2	4	2	100	0	100	Gana $<%abs(values.netchange)%>	3700	85,7142857142857081953	6	7	66,6666666666666571928	6	9	19,0476190476190510026	88,2352941176470579876	15	17	73,6842105263157804984	14	19	14,5510835913312774892
111517	19:36:44	222124	igt	3	igt	33	37	3	1	1	30	2	374	-6	2	4	2	100	0	100	Gana $<%abs(values.netchange)%>	3800	85,7142857142857081953	6	7	70	7	10	15,7142857142857081953	88,2352941176470579876	15	17	75	15	20	13,2352941176470579876
111517	19:36:44	222124	igt	3	igt	35	38	3	1	4	30	2	318	-6	2	4	1	50	0	50	Gana $<%abs(values.netchange)%>	3850	87,5	7	8	70	7	10	17,5	88,8888888888888857309	16	18	75	15	20	13,8888888888888857309
111517	19:36:44	222124	igt	3	igt	37	39	3	1	3	30	2	256	-6	2	3	1	50	0	50	Gana $<%abs(values.netchange)%>	3900	88,8888888888888857309	8	9	70	7	10	18,8888888888888857309	89,4736842105263150415	17	19	75	15	20	14,4736842105263150415
111517	19:36:44	222124	igt	3	igt	39	40	3	1	4	38	1	300	-6	2	3	1	0	0	0	PASAR	3900	80	8	10	70	7	10	10	85	17	20	75	15	20	10
111517	19:36:44	222124	igt	4	igt	1	41	3	1	1	30	2	396	-7	2	3	1	100	350	-250	Pierde $<%abs(values.netchange)%>	3650	0	0	0	100	1	1	-100	85	17	20	76,1904761904761897995	16	21	8,8095238095238102005
111517	19:36:44	222124	igt	4	igt	3	42	3	1	1	30	2	458	-8	2	3	1	100	0	100	Gana $<%abs(values.netchange)%>	3750	0	0	0	100	2	2	-100	85	17	20	77,2727272727272662678	17	22	7,7272727272727337322
111517	19:36:44	222124	igt	4	igt	5	43	3	1	2	30	2	342	-8	1	3	1	100	0	100	Gana $<%abs(values.netchange)%>	3850	0	0	0	100	3	3	-100	85	17	20	78,2608695652173906865	18	23	6,7391304347826093135
111517	19:36:44	222124	igt	4	igt	7	44	3	1	3	30	2	346	-8	1	2	1	50	0	50	Gana $<%abs(values.netchange)%>	3900	100	1	1	100	3	3	0	85,7142857142857081953	18	21	78,2608695652173906865	18	23	7,4534161490683175089
111517	19:36:44	222124	igt	4	igt	9	45	3	1	4	30	2	329	-8	1	2	0	50	0	50	Gana $<%abs(values.netchange)%>	3950	100	2	2	100	3	3	0	86,3636363636363597607	19	22	78,2608695652173906865	18	23	8,1027667984189690742
111517	19:36:44	222124	igt	4	igt	11	46	3	1	3	30	2	291	-8	1	1	0	50	0	50	Gana $<%abs(values.netchange)%>	4000	100	3	3	100	3	3	0	86,9565217391304372541	20	23	78,2608695652173906865	18	23	8,6956521739130465676
111517	19:36:44	222124	igt	4	igt	13	47	3	1	1	38	1	399	-8	1	1	0	0	0	0	PASAR	4000	100	3	3	75	3	4	25	86,9565217391304372541	20	23	75	18	24	11,9565217391304372541
111517	19:36:44	222124	igt	4	igt	15	48	3	1	2	30	2	401	-8	0	1	0	100	0	100	Gana $<%abs(values.netchange)%>	4100	100	3	3	80	4	5	20	86,9565217391304372541	20	23	76	19	25	10,9565217391304372541
111517	19:36:44	222124	igt	4	igt	17	49	3	1	3	30	2	305	-8	0	0	0	50	0	50	Gana $<%abs(values.netchange)%>	4150	100	4	4	80	4	5	20	87,5	21	24	76	19	25	11,5
111517	19:36:44	222124	igt	4	igt	19	50	3	1	2	30	2	277	-8	-1	0	0	100	0	100	Gana $<%abs(values.netchange)%>	4250	100	4	4	83,3333333333333428072	5	6	16,6666666666666571928	87,5	21	24	76,9230769230769340083	20	26	10,5769230769230659917
111517	19:36:44	222124	igt	4	igt	21	51	3	1	4	30	2	261	-8	-1	0	-1	50	0	50	Gana $<%abs(values.netchange)%>	4300	100	5	5	83,3333333333333428072	5	6	16,6666666666666571928	88	22	25	76,9230769230769340083	20	26	11,0769230769230659917
111517	19:36:44	222124	igt	4	igt	23	52	3	1	4	30	2	277	-8	-1	0	-2	50	0	50	Gana $<%abs(values.netchange)%>	4350	100	6	6	83,3333333333333428072	5	6	16,6666666666666571928	88,4615384615384527933	23	26	76,9230769230769340083	20	26	11,538461538461518785
111517	19:36:44	222124	igt	4	igt	25	53	3	1	2	38	1	1414	-8	-1	0	-2	0	0	0	PASAR	4350	100	6	6	71,4285714285714306016	5	7	28,5714285714285693984	88,4615384615384527933	23	26	74,0740740740740761794	20	27	14,3874643874643766139
111517	19:36:44	222124	igt	4	igt	27	54	3	1	1	30	2	357	-9	-1	0	-2	100	150	-50	Pierde $<%abs(values.netchange)%>	4300	100	6	6	75	6	8	25	88,4615384615384527933	23	26	75	21	28	13,4615384615384527933
111517	19:36:44	222124	igt	4	igt	29	55	3	1	1	30	2	528	-10	-1	0	-2	100	300	-200	Pierde $<%abs(values.netchange)%>	4100	100	6	6	77,7777777777777856727	7	9	22,2222222222222143273	88,4615384615384527933	23	26	75,8620689655172384391	22	29	12,5994694960212143542
111517	19:36:44	222124	igt	4	igt	31	56	3	1	4	30	2	1686	-10	-1	0	-3	50	0	50	Gana $<%abs(values.netchange)%>	4150	100	7	7	77,7777777777777856727	7	9	22,2222222222222143273	88,8888888888888857309	24	27	75,8620689655172384391	22	29	13,0268199233716472918
111517	19:36:44	222124	igt	4	igt	33	57	3	1	3	30	2	314	-10	-1	-1	-3	50	75	-25	Pierde $<%abs(values.netchange)%>	4125	100	8	8	77,7777777777777856727	7	9	22,2222222222222143273	89,2857142857142918047	25	28	75,8620689655172384391	22	29	13,4236453201970533655
111517	19:36:44	222124	igt	4	igt	35	58	3	1	4	38	1	398	-10	-1	-1	-3	0	0	0	PASAR	4125	88,8888888888888857309	8	9	77,7777777777777856727	7	9	11,1111111111111000582	86,2068965517241281304	25	29	75,8620689655172384391	22	29	10,3448275862068896913
111517	19:36:44	222124	igt	4	igt	37	59	3	1	2	38	1	394	-10	-1	-1	-3	0	0	0	PASAR	4125	88,8888888888888857309	8	9	70	7	10	18,8888888888888857309	86,2068965517241281304	25	29	73,3333333333333285964	22	30	12,8735632183907995341
111517	19:36:44	222124	igt	4	igt	39	60	3	1	3	38	1	742	-10	-1	-1	-3	0	0	0	PASAR	4125	80	8	10	70	7	10	10	83,3333333333333428072	25	30	73,3333333333333285964	22	30	10,0000000000000142109
111517	19:36:44	222124	igt	5	igt	1	61	3	1	2	30	2	602	-10	-2	-1	-3	100	0	100	Gana $<%abs(values.netchange)%>	4225	0	0	0	100	1	1	-100	83,3333333333333428072	25	30	74,1935483870967686926	23	31	9,1397849462365741147
111517	19:36:44	222124	igt	5	igt	3	62	3	1	4	38	1	522	-10	-2	-1	-3	0	0	0	PASAR	4225	0	0	1	100	1	1	-100	80,6451612903225765194	25	31	74,1935483870967686926	23	31	6,4516129032258078269
111517	19:36:44	222124	igt	5	igt	5	63	3	1	1	30	2	327	-11	-2	-1	-3	100	150	-50	Pierde $<%abs(values.netchange)%>	4175	0	0	1	100	2	2	-100	80,6451612903225765194	25	31	75	24	32	5,6451612903225765194
111517	19:36:44	222124	igt	5	igt	7	64	3	1	2	38	1	2075	-11	-2	-1	-3	0	0	0	PASAR	4175	0	0	1	66,6666666666666571928	2	3	-66,6666666666666571928	80,6451612903225765194	25	31	72,7272727272727337322	24	33	7,9178885630498427872
111517	19:36:44	222124	igt	5	igt	9	65	3	1	1	38	1	1658	-11	-2	-1	-3	0	0	0	PASAR	4175	0	0	1	50	2	4	-50	80,6451612903225765194	25	31	70,5882352941176520744	24	34	10,056925996204924445
111517	19:36:44	222124	igt	5	igt	11	66	3	1	4	30	2	500	-11	-2	-1	-4	50	0	50	Gana $<%abs(values.netchange)%>	4225	50	1	2	50	2	4	0	81,25	26	32	70,5882352941176520744	24	34	10,6617647058823479256
111517	19:36:44	222124	igt	5	igt	13	67	3	1	4	30	2	695	-11	-2	-1	-5	50	0	50	Gana $<%abs(values.netchange)%>	4275	66,6666666666666571928	2	3	50	2	4	16,6666666666666571928	81,8181818181818272251	27	33	70,5882352941176520744	24	34	11,2299465240641751507
111517	19:36:44	222124	igt	5	igt	15	68	3	1	1	38	1	990	-11	-2	-1	-5	0	0	0	PASAR	4275	66,6666666666666571928	2	3	40	2	5	26,6666666666666571928	81,8181818181818272251	27	33	68,5714285714285693984	24	35	13,2467532467532578266
111517	19:36:44	222124	igt	5	igt	17	69	3	1	3	30	2	401	-11	-2	-2	-5	50	75	-25	Pierde $<%abs(values.netchange)%>	4250	75	3	4	40	2	5	35	82,352941176470579876	28	34	68,5714285714285693984	24	35	13,7815126050420104775
111517	19:36:44	222124	igt	5	igt	19	70	3	1	4	30	2	1642	-11	-2	-2	-6	50	250	-200	Pierde $<%abs(values.netchange)%>	4050	80	4	5	40	2	5	40	82,8571428571428612031	29	35	68,5714285714285693984	24	35	14,2857142857142918047
111517	19:36:44	222124	igt	5	igt	21	71	3	1	4	30	2	2587	-11	-2	-2	-7	50	0	50	Gana $<%abs(values.netchange)%>	4100	83,3333333333333428072	5	6	40	2	5	43,3333333333333428072	83,3333333333333428072	30	36	68,5714285714285693984	24	35	14,7619047619047734088
111517	19:36:44	222124	igt	5	igt	23	72	3	1	1	30	2	1683	-12	-2	-2	-7	100	200	-100	Pierde $<%abs(values.netchange)%>	4000	83,3333333333333428072	5	6	50	3	6	33,3333333333333428072	83,3333333333333428072	30	36	69,4444444444444428655	25	36	13,8888888888888999418
111517	19:36:44	222124	igt	5	igt	25	73	3	1	2	30	2	3236	-12	-3	-2	-7	100	1250	-1150	Pierde $<%abs(values.netchange)%>	2850	83,3333333333333428072	5	6	57,1428571428571387969	4	7	26,1904761904762040103	83,3333333333333428072	30	36	70,270270270270273727	26	37	13,0630630630630690803
111517	19:36:44	222124	igt	5	igt	27	74	3	1	3	38	1	2786	-12	-3	-2	-7	0	0	0	PASAR	2850	71,4285714285714306016	5	7	57,1428571428571387969	4	7	14,2857142857142918047	81,081081081081080697	30	37	70,270270270270273727	26	37	10,81081081081080697
111517	19:36:44	222124	igt	5	igt	29	75	3	1	3	30	2	1017	-12	-3	-3	-7	50	0	50	Gana $<%abs(values.netchange)%>	2900	75	6	8	57,1428571428571387969	4	7	17,8571428571428612031	81,5789473684210548754	31	38	70,270270270270273727	26	37	11,3086770981507811484
111517	19:36:44	222124	igt	5	igt	31	76	3	1	3	30	2	757	-12	-3	-4	-7	50	0	50	Gana $<%abs(values.netchange)%>	2950	77,7777777777777856727	7	9	57,1428571428571387969	4	7	20,6349206349206468758	82,0512820512820439944	32	39	70,270270270270273727	26	37	11,7810117810117702675
111517	19:36:44	222124	igt	5	igt	33	77	3	1	2	30	2	550	-12	-4	-4	-7	100	0	100	Gana $<%abs(values.netchange)%>	3050	77,7777777777777856727	7	9	62,5	5	8	15,2777777777777856727	82,0512820512820439944	32	39	71,0526315789473699169	27	38	10,9986504723346740775
111517	19:36:44	222124	igt	5	igt	35	78	3	1	1	38	1	593	-12	-4	-4	-7	0	0	0	PASAR	3050	77,7777777777777856727	7	9	55,5555555555555571345	5	9	22,2222222222222285382	82,0512820512820439944	32	39	69,2307692307692263967	27	39	12,8205128205128175978
111517	19:36:44	222124	igt	5	igt	37	79	3	1	2	30	2	469	-12	-5	-4	-7	100	0	100	Gana $<%abs(values.netchange)%>	3150	77,7777777777777856727	7	9	60	6	10	17,7777777777777856727	82,0512820512820439944	32	39	70	28	40	12,0512820512820439944
111517	19:36:44	222124	igt	5	igt	39	80	3	1	3	30	2	488	-12	-5	-5	-7	50	75	-25	Pierde $<%abs(values.netchange)%>	3125	80	8	10	60	6	10	20	82,5	33	40	70	28	40	12,5
111517	19:36:44	222124	igt	6	igt	1	81	3	1	3	30	2	3160	-12	-5	-6	-7	50	50	0	No gana ni pierde dinero	3125	100	1	1	0	0	0	100	82,9268292682926784209	34	41	70	28	40	12,9268292682926784209
111517	19:36:44	222124	igt	6	igt	3	82	3	1	4	38	1	403	-12	-5	-6	-7	0	0	0	PASAR	3125	50	1	2	0	0	0	50	80,9523809523809489974	34	42	70	28	40	10,9523809523809489974
111517	19:36:44	222124	igt	6	igt	5	83	3	1	1	30	2	1095	-13	-5	-6	-7	100	0	100	Gana $<%abs(values.netchange)%>	3225	50	1	2	100	1	1	-50	80,9523809523809489974	34	42	70,731707317073173158	29	41	10,2206736353077758395
111517	19:36:44	222124	igt	6	igt	7	84	3	1	2	30	2	1859	-13	-6	-6	-7	100	0	100	Gana $<%abs(values.netchange)%>	3325	50	1	2	100	2	2	-50	80,9523809523809489974	34	42	71,4285714285714306016	30	42	9,5238095238095183959
111517	19:36:44	222124	igt	6	igt	9	85	3	1	4	38	1	1081	-13	-6	-6	-7	0	0	0	PASAR	3325	33,3333333333333285964	1	3	100	2	2	-66,6666666666666714036	79,0697674418604634639	34	43	71,4285714285714306016	30	42	7,6411960132890328623
111517	19:36:44	222124	igt	6	igt	11	86	3	1	2	30	2	1353	-13	-7	-6	-7	100	0	100	Gana $<%abs(values.netchange)%>	3425	33,3333333333333285964	1	3	100	3	3	-66,6666666666666714036	79,0697674418604634639	34	43	72,0930232558139465482	31	43	6,9767441860465169157
111517	19:36:44	222124	igt	6	igt	13	87	3	1	3	30	2	555	-13	-7	-7	-7	50	0	50	Gana $<%abs(values.netchange)%>	3475	50	2	4	100	3	3	-50	79,5454545454545467464	35	44	72,0930232558139465482	31	43	7,4524312896406001983
111517	19:36:44	222124	igt	6	igt	15	88	3	1	1	30	2	1456	-14	-7	-7	-7	100	300	-200	Pierde $<%abs(values.netchange)%>	3275	50	2	4	100	4	4	-50	79,5454545454545467464	35	44	72,7272727272727337322	32	44	6,8181818181818130142
111517	19:36:44	222124	igt	6	igt	17	89	3	1	4	30	2	728	-14	-7	-7	-8	50	0	50	Gana $<%abs(values.netchange)%>	3325	60	3	5	100	4	4	-40	80	36	45	72,7272727272727337322	32	44	7,2727272727272662678
111517	19:36:44	222124	igt	6	igt	19	90	3	1	4	30	2	1167	-14	-7	-7	-9	50	0	50	Gana $<%abs(values.netchange)%>	3375	66,6666666666666571928	4	6	100	4	4	-33,3333333333333428072	80,4347826086956558811	37	46	72,7272727272727337322	32	44	7,7075098814229221489
111517	19:36:44	222124	igt	6	igt	21	91	3	1	2	30	2	1078	-14	-8	-7	-9	100	0	100	Gana $<%abs(values.netchange)%>	3475	66,6666666666666571928	4	6	100	5	5	-33,3333333333333428072	80,4347826086956558811	37	46	73,3333333333333285964	33	45	7,1014492753623272847
111517	19:36:44	222124	igt	6	igt	23	92	3	1	3	38	1	1128	-14	-8	-7	-9	0	0	0	PASAR	3475	57,1428571428571387969	4	7	100	5	5	-42,8571428571428612031	78,7234042553191528668	37	47	73,3333333333333285964	33	45	5,3900709219858242705
111517	19:36:44	222124	igt	6	igt	25	93	3	1	1	38	1	718	-14	-8	-7	-9	0	0	0	PASAR	3475	57,1428571428571387969	4	7	83,3333333333333428072	5	6	-26,1904761904762040103	78,7234042553191528668	37	47	71,7391304347826093135	33	46	6,9842738205365435533
111517	19:36:44	222124	igt	6	igt	27	94	3	1	2	30	2	584	-14	-9	-7	-9	100	0	100	Gana $<%abs(values.netchange)%>	3575	57,1428571428571387969	4	7	85,7142857142857081953	6	7	-28,5714285714285693984	78,7234042553191528668	37	47	72,3404255319149029901	34	47	6,3829787234042498767
111517	19:36:44	222124	igt	6	igt	29	95	3	1	3	38	1	2272	-14	-9	-7	-9	0	0	0	PASAR	3575	50	4	8	85,7142857142857081953	6	7	-35,7142857142857081953	77,0833333333333428072	37	48	72,3404255319149029901	34	47	4,7429078014184398171
111517	19:36:44	222124	igt	6	igt	31	96	3	1	3	38	1	1106	-14	-9	-7	-9	0	0	0	PASAR	3575	44,4444444444444428655	4	9	85,7142857142857081953	6	7	-41,2698412698412653299	75,5102040816326507411	37	49	72,3404255319149029901	34	47	3,1697785497177477509
111517	19:36:44	222124	igt	6	igt	33	97	3	1	1	30	2	493	-15	-9	-7	-9	100	0	100	Gana $<%abs(values.netchange)%>	3675	44,4444444444444428655	4	9	87,5	7	8	-43,0555555555555571345	75,5102040816326507411	37	49	72,9166666666666571928	35	48	2,5935374149659935483
111517	19:36:44	222124	igt	6	igt	35	98	3	1	2	30	2	418	-15	-10	-7	-9	100	0	100	Gana $<%abs(values.netchange)%>	3775	44,4444444444444428655	4	9	88,8888888888888857309	8	9	-44,4444444444444428655	75,5102040816326507411	37	49	73,4693877551020477767	36	49	2,0408163265306029643
111517	19:36:44	222124	igt	6	igt	37	99	3	1	4	30	2	454	-15	-10	-7	-10	50	0	50	Gana $<%abs(values.netchange)%>	3825	50	5	10	88,8888888888888857309	8	9	-38,8888888888888857309	76	38	50	73,4693877551020477767	36	49	2,5306122448979522233
111517	19:36:44	222124	igt	6	igt	39	100	3	1	1	30	2	466	-16	-10	-7	-10	100	0	100	Gana $<%abs(values.netchange)%>	3925	50	5	10	90	9	10	-40	76	38	50	74	37	50	2
111517	19:36:44	222124	igt	7	igt	1	101	3	1	1	30	2	1542	-17	-10	-7	-10	100	350	-250	Pierde $<%abs(values.netchange)%>	3675	0	0	0	100	1	1	-100	76	38	50	74,5098039215686327452	38	51	1,4901960784313672548
111517	19:36:44	222124	igt	7	igt	3	102	3	1	1	30	2	1710	-18	-10	-7	-10	100	0	100	Gana $<%abs(values.netchange)%>	3775	0	0	0	100	2	2	-100	76	38	50	75	39	52	1
111517	19:36:44	222124	igt	7	igt	5	103	3	1	3	30	2	506	-18	-10	-8	-10	50	50	0	No gana ni pierde dinero	3775	100	1	1	100	2	2	0	76,4705882352941159752	39	51	75	39	52	1,4705882352941159752
111517	19:36:44	222124	igt	7	igt	7	104	3	1	4	30	2	455	-18	-10	-8	-11	50	0	50	Gana $<%abs(values.netchange)%>	3825	100	2	2	100	2	2	0	76,9230769230769340083	40	52	75	39	52	1,9230769230769340083
111517	19:36:44	222124	igt	7	igt	9	105	3	1	2	30	2	3019	-18	-11	-8	-11	100	1250	-1150	Pierde $<%abs(values.netchange)%>	2675	100	2	2	100	3	3	0	76,9230769230769340083	40	52	75,471698113207551728	40	53	1,4513788098693822803
111517	19:36:44	222124	igt	7	igt	11	106	3	1	4	38	1	1214	-18	-11	-8	-11	0	0	0	PASAR	2675	66,6666666666666571928	2	3	100	3	3	-33,3333333333333428072	75,471698113207551728	40	53	75,471698113207551728	40	53	0
111517	19:36:44	222124	igt	7	igt	13	107	3	1	2	38	1	1158	-18	-11	-8	-11	0	0	0	PASAR	2675	66,6666666666666571928	2	3	75	3	4	-8,3333333333333428072	75,471698113207551728	40	53	74,0740740740740761794	40	54	1,3976240391334755486
111517	19:36:44	222124	igt	7	igt	15	108	3	1	3	30	2	402	-18	-11	-9	-11	50	0	50	Gana $<%abs(values.netchange)%>	2725	75	3	4	75	3	4	0	75,9259259259259238206	41	54	74,0740740740740761794	40	54	1,8518518518518476412
111517	19:36:44	222124	igt	7	igt	17	109	3	1	4	30	2	360	-18	-11	-9	-12	50	250	-200	Pierde $<%abs(values.netchange)%>	2525	80	4	5	75	3	4	5	76,3636363636363739715	42	55	74,0740740740740761794	40	54	2,2895622895622977921
111517	19:36:44	222124	igt	7	igt	19	110	3	1	3	38	1	519	-18	-11	-9	-12	0	0	0	PASAR	2525	66,6666666666666571928	4	6	75	3	4	-8,3333333333333428072	75	42	56	74,0740740740740761794	40	54	0,9259259259259238206
111517	19:36:44	222124	igt	7	igt	21	111	3	1	4	38	1	283	-18	-11	-9	-12	0	0	0	PASAR	2525	57,1428571428571387969	4	7	75	3	4	-17,8571428571428612031	73,6842105263157804984	42	57	74,0740740740740761794	40	54	-0,389863547758295681
111517	19:36:44	222124	igt	7	igt	23	112	3	1	4	30	2	511	-18	-11	-9	-13	50	0	50	Gana $<%abs(values.netchange)%>	2575	62,5	5	8	75	3	4	-12,5	74,1379310344827615609	43	58	74,0740740740740761794	40	54	0,0638569604086853815
111517	19:36:44	222124	igt	7	igt	25	113	3	1	2	38	1	2052	-18	-11	-9	-13	0	0	0	PASAR	2575	62,5	5	8	60	3	5	2,5	74,1379310344827615609	43	58	72,7272727272727337322	40	55	1,4106583072100278287
111517	19:36:44	222124	igt	7	igt	27	114	3	1	3	38	1	2871	-18	-11	-9	-13	0	0	0	PASAR	2575	55,5555555555555571345	5	9	60	3	5	-4,4444444444444428655	72,8813559322033910348	43	59	72,7272727272727337322	40	55	0,1540832049306573026
111517	19:36:44	222124	igt	7	igt	29	115	3	1	1	38	1	958	-18	-11	-9	-13	0	0	0	PASAR	2575	55,5555555555555571345	5	9	50	3	6	5,5555555555555571345	72,8813559322033910348	43	59	71,4285714285714306016	40	56	1,4527845036319604333
111517	19:36:44	222124	igt	7	igt	31	116	3	1	1	38	1	1185	-18	-11	-9	-13	0	0	0	PASAR	2575	55,5555555555555571345	5	9	42,8571428571428540977	3	7	12,6984126984127030369	72,8813559322033910348	43	59	70,1754385964912188456	40	57	2,7059173357121721892
111517	19:36:44	222124	igt	7	igt	33	117	3	1	2	30	2	1043	-18	-12	-9	-13	100	0	100	Gana $<%abs(values.netchange)%>	2675	55,5555555555555571345	5	9	50	4	8	5,5555555555555571345	72,8813559322033910348	43	59	70,6896551724137935935	41	58	2,1917007597895974413
111517	19:36:44	222124	igt	7	igt	35	118	3	1	3	30	2	289	-18	-12	-10	-13	50	0	50	Gana $<%abs(values.netchange)%>	2725	60	6	10	50	4	8	10	73,3333333333333285964	44	60	70,6896551724137935935	41	58	2,6436781609195350029
111517	19:36:44	222124	igt	7	igt	37	119	3	1	1	30	2	819	-19	-12	-10	-13	100	250	-150	Pierde $<%abs(values.netchange)%>	2575	60	6	10	55,5555555555555571345	5	9	4,4444444444444428655	73,3333333333333285964	44	60	71,1864406779661038627	42	59	2,1468926553672247337
111517	19:36:44	222124	igt	7	igt	39	120	3	1	2	30	2	3231	-19	-13	-10	-13	100	0	100	Gana $<%abs(values.netchange)%>	2675	60	6	10	60	6	10	0	73,3333333333333285964	44	60	71,6666666666666714036	43	60	1,6666666666666571928
