date	time	subject	blockcode	blocknum	trialcode	trialnum	values.cardoffered	values.groupnumber	values.defaultresponse	values.targetdeck	response	values.response	latency	values.forcedwins1	values.forcedwins2	values.forcedwins3	values.forcedwins4	values.gain	values.loss	values.netchange	expressions.feedback	values.currenttotal	expressions.percent_goodplay_block	values.number_goodplay_block	values.total_gooddeck_block	expressions.percent_badplay_block	values.number_badplay_block	values.total_baddeck_block	expressions.netscore_block	expressions.percent_goodplay	values.number_goodplay	values.total_gooddeck	expressions.percent_badplay	values.number_badplay	values.total_baddeck	expressions.netscore_total
093018	12:03:38	1	igt	2	igt	1	1	1	1	2	play	2	27	0	-1	0	0	100	1250	-1150	Pierde $<%abs(values.netchange)%>	850	0	0	0	100	1	1	-100	0	0	0	100	1	1	-100
093018	12:03:38	1	igt	2	igt	3	2	1	1	2	pass	1	31	0	-1	0	0	0	0	0	PASAR	850	0	0	0	50	1	2	-50	0	0	0	50	1	2	-50
093018	12:03:38	1	igt	2	igt	5	3	1	1	4	play	2	36	0	-1	0	-1	50	250	-200	Pierde $<%abs(values.netchange)%>	650	100	1	1	50	1	2	50	100	1	1	50	1	2	50
093018	12:03:38	1	igt	2	igt	7	4	1	1	3	pass	1	35	0	-1	0	-1	0	0	0	PASAR	650	50	1	2	50	1	2	0	50	1	2	50	1	2	0
093018	12:03:38	1	igt	2	igt	9	5	1	1	1	play	2	46	-1	-1	0	-1	100	350	-250	Pierde $<%abs(values.netchange)%>	400	50	1	2	66,6666666666666571928	2	3	-16,6666666666666571928	50	1	2	66,6666666666666571928	2	3	-16,6666666666666571928
093018	12:03:38	1	igt	2	igt	11	6	1	1	2	play	2	40	-1	-2	0	-1	100	0	100	Gana $<%abs(values.netchange)%>	500	50	1	2	75	3	4	-25	50	1	2	75	3	4	-25
093018	12:03:38	1	igt	2	igt	13	7	1	1	1	play	2	42	-2	-2	0	-1	100	0	100	Gana $<%abs(values.netchange)%>	600	50	1	2	80	4	5	-30	50	1	2	80	4	5	-30
093018	12:03:38	1	igt	2	igt	15	8	1	1	4	play	2	39	-2	-2	0	-2	50	0	50	Gana $<%abs(values.netchange)%>	650	66,6666666666666571928	2	3	80	4	5	-13,3333333333333428072	66,6666666666666571928	2	3	80	4	5	-13,3333333333333428072
093018	12:03:38	1	igt	2	igt	17	9	1	1	4	pass	1	44	-2	-2	0	-2	0	0	0	PASAR	650	50	2	4	80	4	5	-30	50	2	4	80	4	5	-30
093018	12:03:38	1	igt	2	igt	19	10	1	1	1	pass	1	47	-2	-2	0	-2	0	0	0	PASAR	650	50	2	4	66,6666666666666571928	4	6	-16,6666666666666571928	50	2	4	66,6666666666666571928	4	6	-16,6666666666666571928
093018	12:03:38	1	igt	2	igt	21	11	1	1	3	play	2	44	-2	-2	-1	-2	50	0	50	Gana $<%abs(values.netchange)%>	700	60	3	5	66,6666666666666571928	4	6	-6,6666666666666571928	60	3	5	66,6666666666666571928	4	6	-6,6666666666666571928
093018	12:03:38	1	igt	2	igt	23	12	1	1	1	pass	1	47	-2	-2	-1	-2	0	0	0	PASAR	700	60	3	5	57,1428571428571387969	4	7	2,8571428571428612031	60	3	5	57,1428571428571387969	4	7	2,8571428571428612031
093018	12:03:38	1	igt	2	igt	25	13	1	1	3	play	2	21	-2	-2	-2	-2	50	50	0	No gana ni pierde dinero	700	66,6666666666666571928	4	6	57,1428571428571387969	4	7	9,5238095238095183959	66,6666666666666571928	4	6	57,1428571428571387969	4	7	9,5238095238095183959
093018	12:03:38	1	igt	2	igt	27	14	1	1	2	play	2	59	-2	-3	-2	-2	100	0	100	Gana $<%abs(values.netchange)%>	800	66,6666666666666571928	4	6	62,5	5	8	4,1666666666666571928	66,6666666666666571928	4	6	62,5	5	8	4,1666666666666571928
093018	12:03:38	1	igt	2	igt	29	15	1	1	4	play	2	49	-2	-3	-2	-3	50	0	50	Gana $<%abs(values.netchange)%>	850	71,4285714285714306016	5	7	62,5	5	8	8,9285714285714306016	71,4285714285714306016	5	7	62,5	5	8	8,9285714285714306016
093018	12:03:38	1	igt	2	igt	31	16	1	1	2	pass	1	57	-2	-3	-2	-3	0	0	0	PASAR	850	71,4285714285714306016	5	7	55,5555555555555571345	5	9	15,873015873015873467	71,4285714285714306016	5	7	55,5555555555555571345	5	9	15,873015873015873467
093018	12:03:38	1	igt	2	igt	33	17	1	1	1	play	2	48	-3	-3	-2	-3	100	0	100	Gana $<%abs(values.netchange)%>	950	71,4285714285714306016	5	7	60	6	10	11,4285714285714306016	71,4285714285714306016	5	7	60	6	10	11,4285714285714306016
093018	12:03:38	1	igt	2	igt	35	18	1	1	1	pass	1	24	-3	-3	-2	-3	0	0	0	PASAR	950	71,4285714285714306016	5	7	54,545454545454539641	6	11	16,8831168831168909605	71,4285714285714306016	5	7	54,545454545454539641	6	11	16,8831168831168909605
093018	12:03:38	1	igt	2	igt	37	19	1	1	4	play	2	46	-3	-3	-2	-4	50	0	50	Gana $<%abs(values.netchange)%>	1000	75	6	8	54,545454545454539641	6	11	20,454545454545460359	75	6	8	54,545454545454539641	6	11	20,454545454545460359
093018	12:03:38	1	igt	2	igt	39	20	1	1	3	pass	1	21	-3	-3	-2	-4	0	0	0	PASAR	1000	66,6666666666666571928	6	9	54,545454545454539641	6	11	12,1212121212121175517	66,6666666666666571928	6	9	54,545454545454539641	6	11	12,1212121212121175517
093018	12:03:38	1	igt	2	igt	41	21	1	1	3	pass	1	43	-3	-3	-2	-4	0	0	0	PASAR	1000	60	6	10	54,545454545454539641	6	11	5,454545454545460359	60	6	10	54,545454545454539641	6	11	5,454545454545460359
093018	12:03:38	1	igt	2	igt	43	22	1	1	2	play	2	34	-3	-4	-2	-4	100	0	100	Gana $<%abs(values.netchange)%>	1100	60	6	10	58,3333333333333357018	7	12	1,6666666666666642982	60	6	10	58,3333333333333357018	7	12	1,6666666666666642982
093018	12:03:38	1	igt	2	igt	45	23	1	1	3	pass	1	51	-3	-4	-2	-4	0	0	0	PASAR	1100	54,545454545454539641	6	11	58,3333333333333357018	7	12	-3,7878787878787960608	54,545454545454539641	6	11	58,3333333333333357018	7	12	-3,7878787878787960608
093018	12:03:38	1	igt	2	igt	47	24	1	1	4	pass	1	42	-3	-4	-2	-4	0	0	0	PASAR	1100	50	6	12	58,3333333333333357018	7	12	-8,3333333333333357018	50	6	12	58,3333333333333357018	7	12	-8,3333333333333357018
