date	time	subject	blockcode	blocknum	trialcode	trialnum	values.cardoffered	values.groupnumber	values.defaultresponse	values.targetdeck	response	values.response	latency	values.forcedwins1	values.forcedwins2	values.forcedwins3	values.forcedwins4	values.gain	values.loss	values.netchange	expressions.feedback	values.currenttotal	expressions.percent_goodplay_block	values.number_goodplay_block	values.total_gooddeck_block	expressions.percent_badplay_block	values.number_badplay_block	values.total_baddeck_block	expressions.netscore_block	expressions.percent_goodplay	values.number_goodplay	values.total_gooddeck	expressions.percent_badplay	values.number_badplay	values.total_baddeck	expressions.netscore_total
111617	19:11:56	105	igt	2	igt	1	1	4	1	3	38	1	3693	2	9	12	9	0	0	0	PASAR	2000	0	0	1	0	0	0	0	0	0	1	0	0	0	0
111617	19:11:56	105	igt	2	igt	3	2	4	1	1	38	1	2077	2	9	12	9	0	0	0	PASAR	2000	0	0	1	0	0	1	0	0	0	1	0	0	1	0
111617	19:11:56	105	igt	2	igt	5	3	4	1	4	30	2	1426	2	9	12	8	50	0	50	Gana $<%abs(values.netchange)%>	2050	50	1	2	0	0	1	50	50	1	2	0	0	1	50
111617	19:11:56	105	igt	2	igt	7	4	4	1	1	30	2	2415	1	9	12	8	100	0	100	Gana $<%abs(values.netchange)%>	2150	50	1	2	50	1	2	0	50	1	2	50	1	2	0
111617	19:11:56	105	igt	2	igt	9	5	4	1	2	0	1	4000	1	9	12	8	0	0	0	PASAR	2150	50	1	2	33,3333333333333285964	1	3	16,6666666666666714036	50	1	2	33,3333333333333285964	1	3	16,6666666666666714036
111617	19:11:56	105	igt	2	igt	11	6	4	1	1	38	1	1880	1	9	12	8	0	0	0	PASAR	2150	50	1	2	25	1	4	25	50	1	2	25	1	4	25
111617	19:11:56	105	igt	2	igt	13	7	4	1	4	38	1	3372	1	9	12	8	0	0	0	PASAR	2150	33,3333333333333285964	1	3	25	1	4	8,3333333333333285964	33,3333333333333285964	1	3	25	1	4	8,3333333333333285964
111617	19:11:56	105	igt	2	igt	15	8	4	1	4	30	2	1266	1	9	12	7	50	0	50	Gana $<%abs(values.netchange)%>	2200	50	2	4	25	1	4	25	50	2	4	25	1	4	25
111617	19:11:56	105	igt	2	igt	17	9	4	1	4	0	1	4000	1	9	12	7	0	0	0	PASAR	2200	40	2	5	25	1	4	15	40	2	5	25	1	4	15
111617	19:11:56	105	igt	2	igt	19	10	4	1	3	30	2	1391	1	9	11	7	50	0	50	Gana $<%abs(values.netchange)%>	2250	50	3	6	25	1	4	25	50	3	6	25	1	4	25
111617	19:11:56	105	igt	2	igt	21	11	4	1	1	30	2	1803	0	9	11	7	100	0	100	Gana $<%abs(values.netchange)%>	2350	50	3	6	40	2	5	10	50	3	6	40	2	5	10
111617	19:11:56	105	igt	2	igt	23	12	4	1	4	30	2	1442	0	9	11	6	50	0	50	Gana $<%abs(values.netchange)%>	2400	57,1428571428571387969	4	7	40	2	5	17,1428571428571387969	57,1428571428571387969	4	7	40	2	5	17,1428571428571387969
111617	19:11:56	105	igt	2	igt	25	13	4	1	1	30	2	1420	-1	9	11	6	100	0	100	Gana $<%abs(values.netchange)%>	2500	57,1428571428571387969	4	7	50	3	6	7,1428571428571387969	57,1428571428571387969	4	7	50	3	6	7,1428571428571387969
111617	19:11:56	105	igt	2	igt	27	14	4	1	3	30	2	1480	-1	9	10	6	50	0	50	Gana $<%abs(values.netchange)%>	2550	62,5	5	8	50	3	6	12,5	62,5	5	8	50	3	6	12,5
111617	19:11:56	105	igt	2	igt	29	15	4	1	2	30	2	1599	-1	8	10	6	100	0	100	Gana $<%abs(values.netchange)%>	2650	62,5	5	8	57,1428571428571387969	4	7	5,3571428571428612031	62,5	5	8	57,1428571428571387969	4	7	5,3571428571428612031
111617	19:11:56	105	igt	2	igt	31	16	4	1	2	30	2	1215	-1	7	10	6	100	0	100	Gana $<%abs(values.netchange)%>	2750	62,5	5	8	62,5	5	8	0	62,5	5	8	62,5	5	8	0
111617	19:11:56	105	igt	2	igt	33	17	4	1	3	30	2	1375	-1	7	9	6	50	0	50	Gana $<%abs(values.netchange)%>	2800	66,6666666666666571928	6	9	62,5	5	8	4,1666666666666571928	66,6666666666666571928	6	9	62,5	5	8	4,1666666666666571928
111617	19:11:56	105	igt	2	igt	35	18	4	1	2	30	2	845	-1	6	9	6	100	0	100	Gana $<%abs(values.netchange)%>	2900	66,6666666666666571928	6	9	66,6666666666666571928	6	9	0	66,6666666666666571928	6	9	66,6666666666666571928	6	9	0
111617	19:11:56	105	igt	2	igt	37	19	4	1	2	30	2	1188	-1	5	9	6	100	0	100	Gana $<%abs(values.netchange)%>	3000	66,6666666666666571928	6	9	70	7	10	-3,3333333333333428072	66,6666666666666571928	6	9	70	7	10	-3,3333333333333428072
111617	19:11:56	105	igt	2	igt	39	20	4	1	3	38	1	1085	-1	5	9	6	0	0	0	PASAR	3000	60	6	10	70	7	10	-10	60	6	10	70	7	10	-10
