date	time	subject	blockcode	blocknum	trialcode	trialnum	values.cardoffered	values.groupnumber	values.defaultresponse	values.targetdeck	response	values.response	latency	values.forcedwins1	values.forcedwins2	values.forcedwins3	values.forcedwins4	values.gain	values.loss	values.netchange	expressions.feedback	values.currenttotal	expressions.percent_goodplay_block	values.number_goodplay_block	values.total_gooddeck_block	expressions.percent_badplay_block	values.number_badplay_block	values.total_baddeck_block	expressions.netscore_block	expressions.percent_goodplay	values.number_goodplay	values.total_gooddeck	expressions.percent_badplay	values.number_badplay	values.total_baddeck	expressions.netscore_total
112017	19:23:22	117	igt	2	igt	1	1	2	1	1	0	1	4000	2	9	12	9	0	0	0	PASAR	2000	0	0	0	0	0	1	0	0	0	0	0	0	1	0
112017	19:23:22	117	igt	2	igt	3	2	2	1	4	30	2	1576	2	9	12	8	50	0	50	Gana $<%abs(values.netchange)%>	2050	100	1	1	0	0	1	100	100	1	1	0	0	1	100
112017	19:23:22	117	igt	2	igt	5	3	2	1	3	38	1	1233	2	9	12	8	0	0	0	PASAR	2050	50	1	2	0	0	1	50	50	1	2	0	0	1	50
112017	19:23:22	117	igt	2	igt	7	4	2	1	3	38	1	2934	2	9	12	8	0	0	0	PASAR	2050	33,3333333333333285964	1	3	0	0	1	33,3333333333333285964	33,3333333333333285964	1	3	0	0	1	33,3333333333333285964
112017	19:23:22	117	igt	2	igt	9	5	2	1	2	38	1	184	2	9	12	8	0	0	0	PASAR	2050	33,3333333333333285964	1	3	0	0	2	33,3333333333333285964	33,3333333333333285964	1	3	0	0	2	33,3333333333333285964
112017	19:23:22	117	igt	2	igt	11	6	2	1	4	38	1	54	2	9	12	8	0	0	0	PASAR	2050	25	1	4	0	0	2	25	25	1	4	0	0	2	25
112017	19:23:22	117	igt	2	igt	13	7	2	1	1	38	1	188	2	9	12	8	0	0	0	PASAR	2050	25	1	4	0	0	3	25	25	1	4	0	0	3	25
112017	19:23:22	117	igt	2	igt	15	8	2	1	4	38	1	97	2	9	12	8	0	0	0	PASAR	2050	20	1	5	0	0	3	20	20	1	5	0	0	3	20
112017	19:23:22	117	igt	2	igt	17	9	2	1	1	38	1	88	2	9	12	8	0	0	0	PASAR	2050	20	1	5	0	0	4	20	20	1	5	0	0	4	20
112017	19:23:22	117	igt	2	igt	19	10	2	1	1	38	1	89	2	9	12	8	0	0	0	PASAR	2050	20	1	5	0	0	5	20	20	1	5	0	0	5	20
112017	19:23:22	117	igt	2	igt	21	11	2	1	1	38	1	48	2	9	12	8	0	0	0	PASAR	2050	20	1	5	0	0	6	20	20	1	5	0	0	6	20
112017	19:23:22	117	igt	2	igt	23	12	2	1	2	38	1	40	2	9	12	8	0	0	0	PASAR	2050	20	1	5	0	0	7	20	20	1	5	0	0	7	20
112017	19:23:22	117	igt	2	igt	25	13	2	1	3	38	1	206	2	9	12	8	0	0	0	PASAR	2050	16,6666666666666642982	1	6	0	0	7	16,6666666666666642982	16,6666666666666642982	1	6	0	0	7	16,6666666666666642982
112017	19:23:22	117	igt	2	igt	27	14	2	1	2	38	1	297	2	9	12	8	0	0	0	PASAR	2050	16,6666666666666642982	1	6	0	0	8	16,6666666666666642982	16,6666666666666642982	1	6	0	0	8	16,6666666666666642982
112017	19:23:22	117	igt	2	igt	29	15	2	1	3	38	1	425	2	9	12	8	0	0	0	PASAR	2050	14,2857142857142846992	1	7	0	0	8	14,2857142857142846992	14,2857142857142846992	1	7	0	0	8	14,2857142857142846992
112017	19:23:22	117	igt	2	igt	31	16	2	1	4	38	1	888	2	9	12	8	0	0	0	PASAR	2050	12,5	1	8	0	0	8	12,5	12,5	1	8	0	0	8	12,5
112017	19:23:22	117	igt	2	igt	33	17	2	1	4	38	1	405	2	9	12	8	0	0	0	PASAR	2050	11,1111111111111107164	1	9	0	0	8	11,1111111111111107164	11,1111111111111107164	1	9	0	0	8	11,1111111111111107164
112017	19:23:22	117	igt	2	igt	35	18	2	1	2	30	2	499	2	8	12	8	100	0	100	Gana $<%abs(values.netchange)%>	2150	11,1111111111111107164	1	9	11,1111111111111107164	1	9	0	11,1111111111111107164	1	9	11,1111111111111107164	1	9	0
112017	19:23:22	117	igt	2	igt	37	19	2	1	2	38	1	574	2	8	12	8	0	0	0	PASAR	2150	11,1111111111111107164	1	9	10	1	10	1,1111111111111107164	11,1111111111111107164	1	9	10	1	10	1,1111111111111107164
112017	19:23:22	117	igt	2	igt	39	20	2	1	3	38	1	350	2	8	12	8	0	0	0	PASAR	2150	10	1	10	10	1	10	0	10	1	10	10	1	10	0
