date	time	subject	blockcode	blocknum	trialcode	trialnum	values.cardoffered	values.groupnumber	values.defaultresponse	values.targetdeck	response	values.response	latency	values.forcedwins1	values.forcedwins2	values.forcedwins3	values.forcedwins4	values.gain	values.loss	values.netchange	expressions.feedback	values.currenttotal	expressions.percent_goodplay_block	values.number_goodplay_block	values.total_gooddeck_block	expressions.percent_badplay_block	values.number_badplay_block	values.total_baddeck_block	expressions.netscore_block	expressions.percent_goodplay	values.number_goodplay	values.total_gooddeck	expressions.percent_badplay	values.number_badplay	values.total_baddeck	expressions.netscore_total
112017	19:34:05	123	igt	2	igt	1	1	1	1	2	30	2	3125	2	8	12	9	100	0	100	Gana $<%abs(values.netchange)%>	2100	0	0	0	100	1	1	-100	0	0	0	100	1	1	-100
112017	19:34:05	123	igt	2	igt	3	2	1	1	1	30	2	757	1	8	12	9	100	0	100	Gana $<%abs(values.netchange)%>	2200	0	0	0	100	2	2	-100	0	0	0	100	2	2	-100
112017	19:34:05	123	igt	2	igt	5	3	1	1	4	38	1	609	1	8	12	9	0	0	0	PASAR	2200	0	0	1	100	2	2	-100	0	0	1	100	2	2	-100
112017	19:34:05	123	igt	2	igt	7	4	1	1	3	30	2	742	1	8	11	9	50	0	50	Gana $<%abs(values.netchange)%>	2250	50	1	2	100	2	2	-50	50	1	2	100	2	2	-50
112017	19:34:05	123	igt	2	igt	9	5	1	1	3	30	2	461	1	8	10	9	50	0	50	Gana $<%abs(values.netchange)%>	2300	66,6666666666666571928	2	3	100	2	2	-33,3333333333333428072	66,6666666666666571928	2	3	100	2	2	-33,3333333333333428072
112017	19:34:05	123	igt	2	igt	11	6	1	1	3	30	2	381	1	8	9	9	50	0	50	Gana $<%abs(values.netchange)%>	2350	75	3	4	100	2	2	-25	75	3	4	100	2	2	-25
112017	19:34:05	123	igt	2	igt	13	7	1	1	2	38	1	424	1	8	9	9	0	0	0	PASAR	2350	75	3	4	66,6666666666666571928	2	3	8,3333333333333428072	75	3	4	66,6666666666666571928	2	3	8,3333333333333428072
112017	19:34:05	123	igt	2	igt	15	8	1	1	3	30	2	375	1	8	8	9	50	0	50	Gana $<%abs(values.netchange)%>	2400	80	4	5	66,6666666666666571928	2	3	13,3333333333333428072	80	4	5	66,6666666666666571928	2	3	13,3333333333333428072
112017	19:34:05	123	igt	2	igt	17	9	1	1	2	30	2	297	1	7	8	9	100	0	100	Gana $<%abs(values.netchange)%>	2500	80	4	5	75	3	4	5	80	4	5	75	3	4	5
112017	19:34:05	123	igt	2	igt	19	10	1	1	1	30	2	264	0	7	8	9	100	0	100	Gana $<%abs(values.netchange)%>	2600	80	4	5	80	4	5	0	80	4	5	80	4	5	0
112017	19:34:05	123	igt	2	igt	21	11	1	1	4	38	1	320	0	7	8	9	0	0	0	PASAR	2600	66,6666666666666571928	4	6	80	4	5	-13,3333333333333428072	66,6666666666666571928	4	6	80	4	5	-13,3333333333333428072
112017	19:34:05	123	igt	2	igt	23	12	1	1	3	38	1	293	0	7	8	9	0	0	0	PASAR	2600	57,1428571428571387969	4	7	80	4	5	-22,8571428571428612031	57,1428571428571387969	4	7	80	4	5	-22,8571428571428612031
112017	19:34:05	123	igt	2	igt	25	13	1	1	1	30	2	305	-1	7	8	9	100	0	100	Gana $<%abs(values.netchange)%>	2700	57,1428571428571387969	4	7	83,3333333333333428072	5	6	-26,1904761904762040103	57,1428571428571387969	4	7	83,3333333333333428072	5	6	-26,1904761904762040103
112017	19:34:05	123	igt	2	igt	27	14	1	1	2	30	2	204	-1	6	8	9	100	0	100	Gana $<%abs(values.netchange)%>	2800	57,1428571428571387969	4	7	85,7142857142857081953	6	7	-28,5714285714285693984	57,1428571428571387969	4	7	85,7142857142857081953	6	7	-28,5714285714285693984
112017	19:34:05	123	igt	2	igt	29	15	1	1	4	30	2	214	-1	6	8	8	50	0	50	Gana $<%abs(values.netchange)%>	2850	62,5	5	8	85,7142857142857081953	6	7	-23,2142857142857081953	62,5	5	8	85,7142857142857081953	6	7	-23,2142857142857081953
112017	19:34:05	123	igt	2	igt	31	16	1	1	4	30	2	181	-1	6	8	7	50	0	50	Gana $<%abs(values.netchange)%>	2900	66,6666666666666571928	6	9	85,7142857142857081953	6	7	-19,0476190476190510026	66,6666666666666571928	6	9	85,7142857142857081953	6	7	-19,0476190476190510026
112017	19:34:05	123	igt	2	igt	33	17	1	1	1	30	2	128	-2	6	8	7	100	0	100	Gana $<%abs(values.netchange)%>	3000	66,6666666666666571928	6	9	87,5	7	8	-20,8333333333333428072	66,6666666666666571928	6	9	87,5	7	8	-20,8333333333333428072
112017	19:34:05	123	igt	2	igt	35	18	1	1	4	30	2	159	-2	6	8	6	50	0	50	Gana $<%abs(values.netchange)%>	3050	70	7	10	87,5	7	8	-17,5	70	7	10	87,5	7	8	-17,5
112017	19:34:05	123	igt	2	igt	37	19	1	1	1	30	2	251	-3	6	8	6	100	300	-200	Pierde $<%abs(values.netchange)%>	2850	70	7	10	88,8888888888888857309	8	9	-18,8888888888888857309	70	7	10	88,8888888888888857309	8	9	-18,8888888888888857309
112017	19:34:05	123	igt	2	igt	39	20	1	1	2	38	1	611	-3	6	8	6	0	0	0	PASAR	2850	70	7	10	80	8	10	-10	70	7	10	80	8	10	-10
