date	time	subject	blockcode	blocknum	trialcode	trialnum	values.cardoffered	values.groupnumber	values.defaultresponse	values.targetdeck	response	values.response	latency	values.forcedwins1	values.forcedwins2	values.forcedwins3	values.forcedwins4	values.gain	values.loss	values.netchange	expressions.feedback	values.currenttotal	expressions.percent_goodplay_block	values.number_goodplay_block	values.total_gooddeck_block	expressions.percent_badplay_block	values.number_badplay_block	values.total_baddeck_block	expressions.netscore_block	expressions.percent_goodplay	values.number_goodplay	values.total_gooddeck	expressions.percent_badplay	values.number_badplay	values.total_baddeck	expressions.netscore_total
111417	08:02:31	211136	igt	2	igt	1	1	4	1	2	30	2	932	2	8	12	9	100	0	100	Gana $<%abs(values.netchange)%>	2100	0	0	0	100	1	1	-100	0	0	0	100	1	1	-100
111417	08:02:31	211136	igt	2	igt	3	2	4	1	3	38	1	512	2	8	12	9	0	0	0	PASAR	2100	0	0	1	100	1	1	-100	0	0	1	100	1	1	-100
111417	08:02:31	211136	igt	2	igt	5	3	4	1	2	30	2	736	2	7	12	9	100	0	100	Gana $<%abs(values.netchange)%>	2200	0	0	1	100	2	2	-100	0	0	1	100	2	2	-100
111417	08:02:31	211136	igt	2	igt	7	4	4	1	3	30	2	522	2	7	11	9	50	0	50	Gana $<%abs(values.netchange)%>	2250	50	1	2	100	2	2	-50	50	1	2	100	2	2	-50
111417	08:02:31	211136	igt	2	igt	9	5	4	1	4	30	2	1248	2	7	11	8	50	0	50	Gana $<%abs(values.netchange)%>	2300	66,6666666666666571928	2	3	100	2	2	-33,3333333333333428072	66,6666666666666571928	2	3	100	2	2	-33,3333333333333428072
111417	08:02:31	211136	igt	2	igt	11	6	4	1	1	38	1	728	2	7	11	8	0	0	0	PASAR	2300	66,6666666666666571928	2	3	66,6666666666666571928	2	3	0	66,6666666666666571928	2	3	66,6666666666666571928	2	3	0
111417	08:02:31	211136	igt	2	igt	13	7	4	1	2	30	2	524	2	6	11	8	100	0	100	Gana $<%abs(values.netchange)%>	2400	66,6666666666666571928	2	3	75	3	4	-8,3333333333333428072	66,6666666666666571928	2	3	75	3	4	-8,3333333333333428072
111417	08:02:31	211136	igt	2	igt	15	8	4	1	4	38	1	987	2	6	11	8	0	0	0	PASAR	2400	50	2	4	75	3	4	-25	50	2	4	75	3	4	-25
111417	08:02:31	211136	igt	2	igt	17	9	4	1	1	30	2	365	1	6	11	8	100	0	100	Gana $<%abs(values.netchange)%>	2500	50	2	4	80	4	5	-30	50	2	4	80	4	5	-30
111417	08:02:31	211136	igt	2	igt	19	10	4	1	3	30	2	704	1	6	10	8	50	0	50	Gana $<%abs(values.netchange)%>	2550	60	3	5	80	4	5	-20	60	3	5	80	4	5	-20
111417	08:02:31	211136	igt	2	igt	21	11	4	1	1	38	1	948	1	6	10	8	0	0	0	PASAR	2550	60	3	5	66,6666666666666571928	4	6	-6,6666666666666571928	60	3	5	66,6666666666666571928	4	6	-6,6666666666666571928
111417	08:02:31	211136	igt	2	igt	23	12	4	1	2	30	2	497	1	5	10	8	100	0	100	Gana $<%abs(values.netchange)%>	2650	60	3	5	71,4285714285714306016	5	7	-11,4285714285714306016	60	3	5	71,4285714285714306016	5	7	-11,4285714285714306016
111417	08:02:31	211136	igt	2	igt	25	13	4	1	2	30	2	1391	1	4	10	8	100	0	100	Gana $<%abs(values.netchange)%>	2750	60	3	5	75	6	8	-15	60	3	5	75	6	8	-15
111417	08:02:31	211136	igt	2	igt	27	14	4	1	3	38	1	1930	1	4	10	8	0	0	0	PASAR	2750	50	3	6	75	6	8	-25	50	3	6	75	6	8	-25
111417	08:02:31	211136	igt	2	igt	29	15	4	1	4	30	2	538	1	4	10	7	50	0	50	Gana $<%abs(values.netchange)%>	2800	57,1428571428571387969	4	7	75	6	8	-17,8571428571428612031	57,1428571428571387969	4	7	75	6	8	-17,8571428571428612031
111417	08:02:31	211136	igt	2	igt	31	16	4	1	1	30	2	745	0	4	10	7	100	0	100	Gana $<%abs(values.netchange)%>	2900	57,1428571428571387969	4	7	77,7777777777777856727	7	9	-20,6349206349206468758	57,1428571428571387969	4	7	77,7777777777777856727	7	9	-20,6349206349206468758
111417	08:02:31	211136	igt	2	igt	33	17	4	1	4	38	1	1189	0	4	10	7	0	0	0	PASAR	2900	50	4	8	77,7777777777777856727	7	9	-27,7777777777777856727	50	4	8	77,7777777777777856727	7	9	-27,7777777777777856727
111417	08:02:31	211136	igt	2	igt	35	18	4	1	3	30	2	646	0	4	9	7	50	0	50	Gana $<%abs(values.netchange)%>	2950	55,5555555555555571345	5	9	77,7777777777777856727	7	9	-22,2222222222222285382	55,5555555555555571345	5	9	77,7777777777777856727	7	9	-22,2222222222222285382
111417	08:02:31	211136	igt	2	igt	37	19	4	1	1	38	1	1266	0	4	9	7	0	0	0	PASAR	2950	55,5555555555555571345	5	9	70	7	10	-14,4444444444444428655	55,5555555555555571345	5	9	70	7	10	-14,4444444444444428655
111417	08:02:31	211136	igt	2	igt	39	20	4	1	4	38	1	2240	0	4	9	7	0	0	0	PASAR	2950	50	5	10	70	7	10	-20	50	5	10	70	7	10	-20
