date	time	subject	blockcode	blocknum	trialcode	trialnum	values.cardoffered	values.groupnumber	values.defaultresponse	values.targetdeck	response	values.response	latency	values.forcedwins1	values.forcedwins2	values.forcedwins3	values.forcedwins4	values.gain	values.loss	values.netchange	expressions.feedback	values.currenttotal	expressions.percent_goodplay_block	values.number_goodplay_block	values.total_gooddeck_block	expressions.percent_badplay_block	values.number_badplay_block	values.total_baddeck_block	expressions.netscore_block	expressions.percent_goodplay	values.number_goodplay	values.total_gooddeck	expressions.percent_badplay	values.number_badplay	values.total_baddeck	expressions.netscore_total
110917	07:57:23	212125	igt	2	igt	1	1	2	1	3	0	1	4000	2	9	12	9	0	0	0	PASAR	2000	0	0	1	0	0	0	0	0	0	1	0	0	0	0
110917	07:57:23	212125	igt	2	igt	3	2	2	1	1	30	2	2290	1	9	12	9	100	0	100	Gana $<%abs(values.netchange)%>	2100	0	0	1	100	1	1	-100	0	0	1	100	1	1	-100
110917	07:57:23	212125	igt	2	igt	5	3	2	1	2	30	2	3634	1	8	12	9	100	0	100	Gana $<%abs(values.netchange)%>	2200	0	0	1	100	2	2	-100	0	0	1	100	2	2	-100
110917	07:57:23	212125	igt	2	igt	7	4	2	1	2	38	1	2516	1	8	12	9	0	0	0	PASAR	2200	0	0	1	66,6666666666666571928	2	3	-66,6666666666666571928	0	0	1	66,6666666666666571928	2	3	-66,6666666666666571928
110917	07:57:23	212125	igt	2	igt	9	5	2	1	4	30	2	1562	1	8	12	8	50	0	50	Gana $<%abs(values.netchange)%>	2250	50	1	2	66,6666666666666571928	2	3	-16,6666666666666571928	50	1	2	66,6666666666666571928	2	3	-16,6666666666666571928
110917	07:57:23	212125	igt	2	igt	11	6	2	1	4	30	2	1079	1	8	12	7	50	0	50	Gana $<%abs(values.netchange)%>	2300	66,6666666666666571928	2	3	66,6666666666666571928	2	3	0	66,6666666666666571928	2	3	66,6666666666666571928	2	3	0
110917	07:57:23	212125	igt	2	igt	13	7	2	1	3	30	2	1156	1	8	11	7	50	0	50	Gana $<%abs(values.netchange)%>	2350	75	3	4	66,6666666666666571928	2	3	8,3333333333333428072	75	3	4	66,6666666666666571928	2	3	8,3333333333333428072
110917	07:57:23	212125	igt	2	igt	15	8	2	1	2	38	1	2526	1	8	11	7	0	0	0	PASAR	2350	75	3	4	50	2	4	25	75	3	4	50	2	4	25
110917	07:57:23	212125	igt	2	igt	17	9	2	1	2	38	1	969	1	8	11	7	0	0	0	PASAR	2350	75	3	4	40	2	5	35	75	3	4	40	2	5	35
110917	07:57:23	212125	igt	2	igt	19	10	2	1	4	30	2	1155	1	8	11	6	50	0	50	Gana $<%abs(values.netchange)%>	2400	80	4	5	40	2	5	40	80	4	5	40	2	5	40
110917	07:57:23	212125	igt	2	igt	21	11	2	1	3	38	1	2609	1	8	11	6	0	0	0	PASAR	2400	66,6666666666666571928	4	6	40	2	5	26,6666666666666571928	66,6666666666666571928	4	6	40	2	5	26,6666666666666571928
110917	07:57:23	212125	igt	2	igt	23	12	2	1	1	30	2	606	0	8	11	6	100	0	100	Gana $<%abs(values.netchange)%>	2500	66,6666666666666571928	4	6	50	3	6	16,6666666666666571928	66,6666666666666571928	4	6	50	3	6	16,6666666666666571928
110917	07:57:23	212125	igt	2	igt	25	13	2	1	2	30	2	2565	0	7	11	6	100	0	100	Gana $<%abs(values.netchange)%>	2600	66,6666666666666571928	4	6	57,1428571428571387969	4	7	9,5238095238095183959	66,6666666666666571928	4	6	57,1428571428571387969	4	7	9,5238095238095183959
110917	07:57:23	212125	igt	2	igt	27	14	2	1	4	38	1	1197	0	7	11	6	0	0	0	PASAR	2600	57,1428571428571387969	4	7	57,1428571428571387969	4	7	0	57,1428571428571387969	4	7	57,1428571428571387969	4	7	0
110917	07:57:23	212125	igt	2	igt	29	15	2	1	1	30	2	619	-1	7	11	6	100	0	100	Gana $<%abs(values.netchange)%>	2700	57,1428571428571387969	4	7	62,5	5	8	-5,3571428571428612031	57,1428571428571387969	4	7	62,5	5	8	-5,3571428571428612031
110917	07:57:23	212125	igt	2	igt	31	16	2	1	1	30	2	1600	-2	7	11	6	100	250	-150	Pierde $<%abs(values.netchange)%>	2550	57,1428571428571387969	4	7	66,6666666666666571928	6	9	-9,5238095238095183959	57,1428571428571387969	4	7	66,6666666666666571928	6	9	-9,5238095238095183959
110917	07:57:23	212125	igt	2	igt	33	17	2	1	4	30	2	1266	-2	7	11	5	50	0	50	Gana $<%abs(values.netchange)%>	2600	62,5	5	8	66,6666666666666571928	6	9	-4,1666666666666571928	62,5	5	8	66,6666666666666571928	6	9	-4,1666666666666571928
110917	07:57:23	212125	igt	2	igt	35	18	2	1	1	30	2	1950	-3	7	11	5	100	350	-250	Pierde $<%abs(values.netchange)%>	2350	62,5	5	8	70	7	10	-7,5	62,5	5	8	70	7	10	-7,5
110917	07:57:23	212125	igt	2	igt	37	19	2	1	3	30	2	816	-3	7	10	5	50	0	50	Gana $<%abs(values.netchange)%>	2400	66,6666666666666571928	6	9	70	7	10	-3,3333333333333428072	66,6666666666666571928	6	9	70	7	10	-3,3333333333333428072
110917	07:57:23	212125	igt	2	igt	39	20	2	1	3	38	1	1155	-3	7	10	5	0	0	0	PASAR	2400	60	6	10	70	7	10	-10	60	6	10	70	7	10	-10
