date	time	subject	blockcode	blocknum	trialcode	trialnum	values.cardoffered	values.groupnumber	values.defaultresponse	values.targetdeck	response	values.response	latency	values.forcedwins1	values.forcedwins2	values.forcedwins3	values.forcedwins4	values.gain	values.loss	values.netchange	expressions.feedback	values.currenttotal	expressions.percent_goodplay_block	values.number_goodplay_block	values.total_gooddeck_block	expressions.percent_badplay_block	values.number_badplay_block	values.total_baddeck_block	expressions.netscore_block	expressions.percent_goodplay	values.number_goodplay	values.total_gooddeck	expressions.percent_badplay	values.number_badplay	values.total_baddeck	expressions.netscore_total
111417	07:31:33	211130	igt	2	igt	1	1	2	1	2	30	2	921	2	8	12	9	100	0	100	Gana $<%abs(values.netchange)%>	2100	0	0	0	100	1	1	-100	0	0	0	100	1	1	-100
111417	07:31:33	211130	igt	2	igt	3	2	2	1	3	38	1	843	2	8	12	9	0	0	0	PASAR	2100	0	0	1	100	1	1	-100	0	0	1	100	1	1	-100
111417	07:31:33	211130	igt	2	igt	5	3	2	1	1	30	2	630	1	8	12	9	100	0	100	Gana $<%abs(values.netchange)%>	2200	0	0	1	100	2	2	-100	0	0	1	100	2	2	-100
111417	07:31:33	211130	igt	2	igt	7	4	2	1	2	30	2	1233	1	7	12	9	100	0	100	Gana $<%abs(values.netchange)%>	2300	0	0	1	100	3	3	-100	0	0	1	100	3	3	-100
111417	07:31:33	211130	igt	2	igt	9	5	2	1	3	38	1	938	1	7	12	9	0	0	0	PASAR	2300	0	0	2	100	3	3	-100	0	0	2	100	3	3	-100
111417	07:31:33	211130	igt	2	igt	11	6	2	1	3	38	1	1111	1	7	12	9	0	0	0	PASAR	2300	0	0	3	100	3	3	-100	0	0	3	100	3	3	-100
111417	07:31:33	211130	igt	2	igt	13	7	2	1	4	30	2	732	1	7	12	8	50	0	50	Gana $<%abs(values.netchange)%>	2350	25	1	4	100	3	3	-75	25	1	4	100	3	3	-75
111417	07:31:33	211130	igt	2	igt	15	8	2	1	2	30	2	812	1	6	12	8	100	0	100	Gana $<%abs(values.netchange)%>	2450	25	1	4	100	4	4	-75	25	1	4	100	4	4	-75
111417	07:31:33	211130	igt	2	igt	17	9	2	1	4	38	1	694	1	6	12	8	0	0	0	PASAR	2450	20	1	5	100	4	4	-80	20	1	5	100	4	4	-80
111417	07:31:33	211130	igt	2	igt	19	10	2	1	3	30	2	626	1	6	11	8	50	0	50	Gana $<%abs(values.netchange)%>	2500	33,3333333333333285964	2	6	100	4	4	-66,6666666666666714036	33,3333333333333285964	2	6	100	4	4	-66,6666666666666714036
111417	07:31:33	211130	igt	2	igt	21	11	2	1	1	30	2	879	0	6	11	8	100	0	100	Gana $<%abs(values.netchange)%>	2600	33,3333333333333285964	2	6	100	5	5	-66,6666666666666714036	33,3333333333333285964	2	6	100	5	5	-66,6666666666666714036
111417	07:31:33	211130	igt	2	igt	23	12	2	1	2	38	1	646	0	6	11	8	0	0	0	PASAR	2600	33,3333333333333285964	2	6	83,3333333333333428072	5	6	-50,0000000000000142109	33,3333333333333285964	2	6	83,3333333333333428072	5	6	-50,0000000000000142109
111417	07:31:33	211130	igt	2	igt	25	13	2	1	4	30	2	672	0	6	11	7	50	0	50	Gana $<%abs(values.netchange)%>	2650	42,8571428571428540977	3	7	83,3333333333333428072	5	6	-40,4761904761904887096	42,8571428571428540977	3	7	83,3333333333333428072	5	6	-40,4761904761904887096
111417	07:31:33	211130	igt	2	igt	27	14	2	1	1	30	2	803	-1	6	11	7	100	250	-150	Pierde $<%abs(values.netchange)%>	2500	42,8571428571428540977	3	7	85,7142857142857081953	6	7	-42,8571428571428540977	42,8571428571428540977	3	7	85,7142857142857081953	6	7	-42,8571428571428540977
111417	07:31:33	211130	igt	2	igt	29	15	2	1	4	38	1	614	-1	6	11	7	0	0	0	PASAR	2500	37,5	3	8	85,7142857142857081953	6	7	-48,2142857142857081953	37,5	3	8	85,7142857142857081953	6	7	-48,2142857142857081953
111417	07:31:33	211130	igt	2	igt	31	16	2	1	1	30	2	934	-2	6	11	7	100	150	-50	Pierde $<%abs(values.netchange)%>	2450	37,5	3	8	87,5	7	8	-50	37,5	3	8	87,5	7	8	-50
111417	07:31:33	211130	igt	2	igt	33	17	2	1	1	38	1	1108	-2	6	11	7	0	0	0	PASAR	2450	37,5	3	8	77,7777777777777856727	7	9	-40,2777777777777856727	37,5	3	8	77,7777777777777856727	7	9	-40,2777777777777856727
111417	07:31:33	211130	igt	2	igt	35	18	2	1	3	38	1	697	-2	6	11	7	0	0	0	PASAR	2450	33,3333333333333285964	3	9	77,7777777777777856727	7	9	-44,4444444444444570763	33,3333333333333285964	3	9	77,7777777777777856727	7	9	-44,4444444444444570763
111417	07:31:33	211130	igt	2	igt	37	19	2	1	2	30	2	1720	-2	5	11	7	100	0	100	Gana $<%abs(values.netchange)%>	2550	33,3333333333333285964	3	9	80	8	10	-46,6666666666666714036	33,3333333333333285964	3	9	80	8	10	-46,6666666666666714036
111417	07:31:33	211130	igt	2	igt	39	20	2	1	4	30	2	652	-2	5	11	6	50	0	50	Gana $<%abs(values.netchange)%>	2600	40	4	10	80	8	10	-40	40	4	10	80	8	10	-40
