date	time	subject	blockcode	blocknum	trialcode	trialnum	values.cardoffered	values.groupnumber	values.defaultresponse	values.targetdeck	response	values.response	latency	values.forcedwins1	values.forcedwins2	values.forcedwins3	values.forcedwins4	values.gain	values.loss	values.netchange	expressions.feedback	values.currenttotal	expressions.percent_goodplay_block	values.number_goodplay_block	values.total_gooddeck_block	expressions.percent_badplay_block	values.number_badplay_block	values.total_baddeck_block	expressions.netscore_block	expressions.percent_goodplay	values.number_goodplay	values.total_gooddeck	expressions.percent_badplay	values.number_badplay	values.total_baddeck	expressions.netscore_total
111517	08:08:38	222124	igt	2	igt	1	1	4	1	3	0	1	4000	2	9	12	9	0	0	0	PASAR	2000	0	0	1	0	0	0	0	0	0	1	0	0	0	0
111517	08:08:38	222124	igt	2	igt	3	2	4	1	4	38	1	2363	2	9	12	9	0	0	0	PASAR	2000	0	0	2	0	0	0	0	0	0	2	0	0	0	0
111517	08:08:38	222124	igt	2	igt	5	3	4	1	2	30	2	907	2	8	12	9	100	0	100	Gana $<%abs(values.netchange)%>	2100	0	0	2	100	1	1	-100	0	0	2	100	1	1	-100
111517	08:08:38	222124	igt	2	igt	7	4	4	1	4	30	2	2421	2	8	12	8	50	0	50	Gana $<%abs(values.netchange)%>	2150	33,3333333333333285964	1	3	100	1	1	-66,6666666666666714036	33,3333333333333285964	1	3	100	1	1	-66,6666666666666714036
111517	08:08:38	222124	igt	2	igt	9	5	4	1	3	30	2	1885	2	8	11	8	50	0	50	Gana $<%abs(values.netchange)%>	2200	50	2	4	100	1	1	-50	50	2	4	100	1	1	-50
111517	08:08:38	222124	igt	2	igt	11	6	4	1	3	38	1	2652	2	8	11	8	0	0	0	PASAR	2200	40	2	5	100	1	1	-60	40	2	5	100	1	1	-60
111517	08:08:38	222124	igt	2	igt	13	7	4	1	2	30	2	643	2	7	11	8	100	0	100	Gana $<%abs(values.netchange)%>	2300	40	2	5	100	2	2	-60	40	2	5	100	2	2	-60
111517	08:08:38	222124	igt	2	igt	15	8	4	1	1	30	2	1096	1	7	11	8	100	0	100	Gana $<%abs(values.netchange)%>	2400	40	2	5	100	3	3	-60	40	2	5	100	3	3	-60
111517	08:08:38	222124	igt	2	igt	17	9	4	1	2	30	2	2485	1	6	11	8	100	0	100	Gana $<%abs(values.netchange)%>	2500	40	2	5	100	4	4	-60	40	2	5	100	4	4	-60
111517	08:08:38	222124	igt	2	igt	19	10	4	1	2	30	2	966	1	5	11	8	100	0	100	Gana $<%abs(values.netchange)%>	2600	40	2	5	100	5	5	-60	40	2	5	100	5	5	-60
111517	08:08:38	222124	igt	2	igt	21	11	4	1	1	30	2	878	0	5	11	8	100	0	100	Gana $<%abs(values.netchange)%>	2700	40	2	5	100	6	6	-60	40	2	5	100	6	6	-60
111517	08:08:38	222124	igt	2	igt	23	12	4	1	1	30	2	730	-1	5	11	8	100	200	-100	Pierde $<%abs(values.netchange)%>	2600	40	2	5	100	7	7	-60	40	2	5	100	7	7	-60
111517	08:08:38	222124	igt	2	igt	25	13	4	1	4	30	2	2219	-1	5	11	7	50	0	50	Gana $<%abs(values.netchange)%>	2650	50	3	6	100	7	7	-50	50	3	6	100	7	7	-50
111517	08:08:38	222124	igt	2	igt	27	14	4	1	1	30	2	578	-2	5	11	7	100	0	100	Gana $<%abs(values.netchange)%>	2750	50	3	6	100	8	8	-50	50	3	6	100	8	8	-50
111517	08:08:38	222124	igt	2	igt	29	15	4	1	2	30	2	527	-2	4	11	7	100	0	100	Gana $<%abs(values.netchange)%>	2850	50	3	6	100	9	9	-50	50	3	6	100	9	9	-50
111517	08:08:38	222124	igt	2	igt	31	16	4	1	4	38	1	1670	-2	4	11	7	0	0	0	PASAR	2850	42,8571428571428540977	3	7	100	9	9	-57,1428571428571459023	42,8571428571428540977	3	7	100	9	9	-57,1428571428571459023
111517	08:08:38	222124	igt	2	igt	33	17	4	1	4	30	2	2904	-2	4	11	6	50	0	50	Gana $<%abs(values.netchange)%>	2900	50	4	8	100	9	9	-50	50	4	8	100	9	9	-50
111517	08:08:38	222124	igt	2	igt	35	18	4	1	3	30	2	746	-2	4	10	6	50	0	50	Gana $<%abs(values.netchange)%>	2950	55,5555555555555571345	5	9	100	9	9	-44,4444444444444428655	55,5555555555555571345	5	9	100	9	9	-44,4444444444444428655
111517	08:08:38	222124	igt	2	igt	37	19	4	1	1	30	2	816	-3	4	10	6	100	350	-250	Pierde $<%abs(values.netchange)%>	2700	55,5555555555555571345	5	9	100	10	10	-44,4444444444444428655	55,5555555555555571345	5	9	100	10	10	-44,4444444444444428655
111517	08:08:38	222124	igt	2	igt	39	20	4	1	3	38	1	3687	-3	4	10	6	0	0	0	PASAR	2700	50	5	10	100	10	10	-50	50	5	10	100	10	10	-50
