date	time	subject	blockcode	blocknum	trialcode	trialnum	values.cardoffered	values.groupnumber	values.defaultresponse	values.targetdeck	response	values.response	latency	values.forcedwins1	values.forcedwins2	values.forcedwins3	values.forcedwins4	values.gain	values.loss	values.netchange	expressions.feedback	values.currenttotal	expressions.percent_goodplay_block	values.number_goodplay_block	values.total_gooddeck_block	expressions.percent_badplay_block	values.number_badplay_block	values.total_baddeck_block	expressions.netscore_block	expressions.percent_goodplay	values.number_goodplay	values.total_gooddeck	expressions.percent_badplay	values.number_badplay	values.total_baddeck	expressions.netscore_total
111517	07:30:49	221119	igt	2	igt	1	1	4	1	4	30	2	3350	2	9	12	8	50	0	50	Gana $<%abs(values.netchange)%>	2050	100	1	1	0	0	0	100	100	1	1	0	0	0	100
111517	07:30:49	221119	igt	2	igt	3	2	4	1	1	38	1	1115	2	9	12	8	0	0	0	PASAR	2050	100	1	1	0	0	1	100	100	1	1	0	0	1	100
111517	07:30:49	221119	igt	2	igt	5	3	4	1	2	30	2	1266	2	8	12	8	100	0	100	Gana $<%abs(values.netchange)%>	2150	100	1	1	50	1	2	50	100	1	1	50	1	2	50
111517	07:30:49	221119	igt	2	igt	7	4	4	1	2	30	2	2310	2	7	12	8	100	0	100	Gana $<%abs(values.netchange)%>	2250	100	1	1	66,6666666666666571928	2	3	33,3333333333333428072	100	1	1	66,6666666666666571928	2	3	33,3333333333333428072
111517	07:30:49	221119	igt	2	igt	9	5	4	1	4	30	2	1582	2	7	12	7	50	0	50	Gana $<%abs(values.netchange)%>	2300	100	2	2	66,6666666666666571928	2	3	33,3333333333333428072	100	2	2	66,6666666666666571928	2	3	33,3333333333333428072
111517	07:30:49	221119	igt	2	igt	11	6	4	1	2	30	2	1117	2	6	12	7	100	0	100	Gana $<%abs(values.netchange)%>	2400	100	2	2	75	3	4	25	100	2	2	75	3	4	25
111517	07:30:49	221119	igt	2	igt	13	7	4	1	3	38	1	963	2	6	12	7	0	0	0	PASAR	2400	66,6666666666666571928	2	3	75	3	4	-8,3333333333333428072	66,6666666666666571928	2	3	75	3	4	-8,3333333333333428072
111517	07:30:49	221119	igt	2	igt	15	8	4	1	4	30	2	718	2	6	12	6	50	0	50	Gana $<%abs(values.netchange)%>	2450	75	3	4	75	3	4	0	75	3	4	75	3	4	0
111517	07:30:49	221119	igt	2	igt	17	9	4	1	3	30	2	1050	2	6	11	6	50	0	50	Gana $<%abs(values.netchange)%>	2500	80	4	5	75	3	4	5	80	4	5	75	3	4	5
111517	07:30:49	221119	igt	2	igt	19	10	4	1	4	38	1	1075	2	6	11	6	0	0	0	PASAR	2500	66,6666666666666571928	4	6	75	3	4	-8,3333333333333428072	66,6666666666666571928	4	6	75	3	4	-8,3333333333333428072
111517	07:30:49	221119	igt	2	igt	21	11	4	1	4	30	2	614	2	6	11	5	50	0	50	Gana $<%abs(values.netchange)%>	2550	71,4285714285714306016	5	7	75	3	4	-3,5714285714285693984	71,4285714285714306016	5	7	75	3	4	-3,5714285714285693984
111517	07:30:49	221119	igt	2	igt	23	12	4	1	1	30	2	1056	1	6	11	5	100	0	100	Gana $<%abs(values.netchange)%>	2650	71,4285714285714306016	5	7	80	4	5	-8,5714285714285693984	71,4285714285714306016	5	7	80	4	5	-8,5714285714285693984
111517	07:30:49	221119	igt	2	igt	25	13	4	1	3	30	2	829	1	6	10	5	50	0	50	Gana $<%abs(values.netchange)%>	2700	75	6	8	80	4	5	-5	75	6	8	80	4	5	-5
111517	07:30:49	221119	igt	2	igt	27	14	4	1	1	30	2	1423	0	6	10	5	100	0	100	Gana $<%abs(values.netchange)%>	2800	75	6	8	83,3333333333333428072	5	6	-8,3333333333333428072	75	6	8	83,3333333333333428072	5	6	-8,3333333333333428072
111517	07:30:49	221119	igt	2	igt	29	15	4	1	2	38	1	1354	0	6	10	5	0	0	0	PASAR	2800	75	6	8	71,4285714285714306016	5	7	3,5714285714285693984	75	6	8	71,4285714285714306016	5	7	3,5714285714285693984
111517	07:30:49	221119	igt	2	igt	31	16	4	1	1	38	1	1082	0	6	10	5	0	0	0	PASAR	2800	75	6	8	62,5	5	8	12,5	75	6	8	62,5	5	8	12,5
111517	07:30:49	221119	igt	2	igt	33	17	4	1	3	30	2	1140	0	6	9	5	50	0	50	Gana $<%abs(values.netchange)%>	2850	77,7777777777777856727	7	9	62,5	5	8	15,2777777777777856727	77,7777777777777856727	7	9	62,5	5	8	15,2777777777777856727
111517	07:30:49	221119	igt	2	igt	35	18	4	1	2	30	2	709	0	5	9	5	100	0	100	Gana $<%abs(values.netchange)%>	2950	77,7777777777777856727	7	9	66,6666666666666571928	6	9	11,1111111111111284799	77,7777777777777856727	7	9	66,6666666666666571928	6	9	11,1111111111111284799
111517	07:30:49	221119	igt	2	igt	37	19	4	1	1	38	1	1510	0	5	9	5	0	0	0	PASAR	2950	77,7777777777777856727	7	9	60	6	10	17,7777777777777856727	77,7777777777777856727	7	9	60	6	10	17,7777777777777856727
111517	07:30:49	221119	igt	2	igt	39	20	4	1	3	30	2	1060	0	5	8	5	50	0	50	Gana $<%abs(values.netchange)%>	3000	80	8	10	60	6	10	20	80	8	10	60	6	10	20
