date	time	subject	blockcode	blocknum	trialcode	trialnum	values.cardoffered	values.groupnumber	values.defaultresponse	values.targetdeck	response	values.response	latency	values.forcedwins1	values.forcedwins2	values.forcedwins3	values.forcedwins4	values.gain	values.loss	values.netchange	expressions.feedback	values.currenttotal	expressions.percent_goodplay_block	values.number_goodplay_block	values.total_gooddeck_block	expressions.percent_badplay_block	values.number_badplay_block	values.total_baddeck_block	expressions.netscore_block	expressions.percent_goodplay	values.number_goodplay	values.total_gooddeck	expressions.percent_badplay	values.number_badplay	values.total_baddeck	expressions.netscore_total
110917	19:07:02	211119	igt	2	igt	1	1	2	1	3	30	2	2008	2	9	11	9	50	0	50	Gana $<%abs(values.netchange)%>	2050	100	1	1	0	0	0	100	100	1	1	0	0	0	100
110917	19:07:02	211119	igt	2	igt	3	2	2	1	3	30	2	898	2	9	10	9	50	0	50	Gana $<%abs(values.netchange)%>	2100	100	2	2	0	0	0	100	100	2	2	0	0	0	100
110917	19:07:02	211119	igt	2	igt	5	3	2	1	4	30	2	1117	2	9	10	8	50	0	50	Gana $<%abs(values.netchange)%>	2150	100	3	3	0	0	0	100	100	3	3	0	0	0	100
110917	19:07:02	211119	igt	2	igt	7	4	2	1	3	30	2	447	2	9	9	8	50	0	50	Gana $<%abs(values.netchange)%>	2200	100	4	4	0	0	0	100	100	4	4	0	0	0	100
110917	19:07:02	211119	igt	2	igt	9	5	2	1	2	30	2	458	2	8	9	8	100	0	100	Gana $<%abs(values.netchange)%>	2300	100	4	4	100	1	1	0	100	4	4	100	1	1	0
110917	19:07:02	211119	igt	2	igt	11	6	2	1	2	30	2	854	2	7	9	8	100	0	100	Gana $<%abs(values.netchange)%>	2400	100	4	4	100	2	2	0	100	4	4	100	2	2	0
110917	19:07:02	211119	igt	2	igt	13	7	2	1	3	30	2	518	2	7	8	8	50	0	50	Gana $<%abs(values.netchange)%>	2450	100	5	5	100	2	2	0	100	5	5	100	2	2	0
110917	19:07:02	211119	igt	2	igt	15	8	2	1	3	30	2	494	2	7	7	8	50	0	50	Gana $<%abs(values.netchange)%>	2500	100	6	6	100	2	2	0	100	6	6	100	2	2	0
110917	19:07:02	211119	igt	2	igt	17	9	2	1	1	30	2	574	1	7	7	8	100	0	100	Gana $<%abs(values.netchange)%>	2600	100	6	6	100	3	3	0	100	6	6	100	3	3	0
110917	19:07:02	211119	igt	2	igt	19	10	2	1	2	30	2	438	1	6	7	8	100	0	100	Gana $<%abs(values.netchange)%>	2700	100	6	6	100	4	4	0	100	6	6	100	4	4	0
110917	19:07:02	211119	igt	2	igt	21	11	2	1	1	30	2	300	0	6	7	8	100	0	100	Gana $<%abs(values.netchange)%>	2800	100	6	6	100	5	5	0	100	6	6	100	5	5	0
110917	19:07:02	211119	igt	2	igt	23	12	2	1	4	30	2	396	0	6	7	7	50	0	50	Gana $<%abs(values.netchange)%>	2850	100	7	7	100	5	5	0	100	7	7	100	5	5	0
110917	19:07:02	211119	igt	2	igt	25	13	2	1	1	30	2	387	-1	6	7	7	100	200	-100	Pierde $<%abs(values.netchange)%>	2750	100	7	7	100	6	6	0	100	7	7	100	6	6	0
110917	19:07:02	211119	igt	2	igt	27	14	2	1	2	30	2	449	-1	5	7	7	100	0	100	Gana $<%abs(values.netchange)%>	2850	100	7	7	100	7	7	0	100	7	7	100	7	7	0
110917	19:07:02	211119	igt	2	igt	29	15	2	1	1	30	2	362	-2	5	7	7	100	0	100	Gana $<%abs(values.netchange)%>	2950	100	7	7	100	8	8	0	100	7	7	100	8	8	0
110917	19:07:02	211119	igt	2	igt	31	16	2	1	4	30	2	509	-2	5	7	6	50	0	50	Gana $<%abs(values.netchange)%>	3000	100	8	8	100	8	8	0	100	8	8	100	8	8	0
110917	19:07:02	211119	igt	2	igt	33	17	2	1	1	30	2	506	-3	5	7	6	100	0	100	Gana $<%abs(values.netchange)%>	3100	100	8	8	100	9	9	0	100	8	8	100	9	9	0
110917	19:07:02	211119	igt	2	igt	35	18	2	1	4	30	2	431	-3	5	7	5	50	0	50	Gana $<%abs(values.netchange)%>	3150	100	9	9	100	9	9	0	100	9	9	100	9	9	0
110917	19:07:02	211119	igt	2	igt	37	19	2	1	4	30	2	440	-3	5	7	4	50	0	50	Gana $<%abs(values.netchange)%>	3200	100	10	10	100	9	9	0	100	10	10	100	9	9	0
110917	19:07:02	211119	igt	2	igt	39	20	2	1	2	30	2	407	-3	4	7	4	100	0	100	Gana $<%abs(values.netchange)%>	3300	100	10	10	100	10	10	0	100	10	10	100	10	10	0
110917	19:07:02	211119	igt	3	igt	1	21	2	1	4	30	2	1217	-3	4	7	3	50	0	50	Gana $<%abs(values.netchange)%>	3350	100	1	1	0	0	0	100	100	11	11	100	10	10	0
110917	19:07:02	211119	igt	3	igt	3	22	2	1	1	30	2	468	-4	4	7	3	100	0	100	Gana $<%abs(values.netchange)%>	3450	100	1	1	100	1	1	0	100	11	11	100	11	11	0
110917	19:07:02	211119	igt	3	igt	5	23	2	1	4	30	2	414	-4	4	7	2	50	0	50	Gana $<%abs(values.netchange)%>	3500	100	2	2	100	1	1	0	100	12	12	100	11	11	0
110917	19:07:02	211119	igt	3	igt	7	24	2	1	2	30	2	356	-4	3	7	2	100	0	100	Gana $<%abs(values.netchange)%>	3600	100	2	2	100	2	2	0	100	12	12	100	12	12	0
110917	19:07:02	211119	igt	3	igt	9	25	2	1	1	30	2	342	-5	3	7	2	100	150	-50	Pierde $<%abs(values.netchange)%>	3550	100	2	2	100	3	3	0	100	12	12	100	13	13	0
110917	19:07:02	211119	igt	3	igt	11	26	2	1	4	30	2	612	-5	3	7	1	50	0	50	Gana $<%abs(values.netchange)%>	3600	100	3	3	100	3	3	0	100	13	13	100	13	13	0
110917	19:07:02	211119	igt	3	igt	13	27	2	1	2	30	2	351	-5	2	7	1	100	0	100	Gana $<%abs(values.netchange)%>	3700	100	3	3	100	4	4	0	100	13	13	100	14	14	0
110917	19:07:02	211119	igt	3	igt	15	28	2	1	3	30	2	398	-5	2	6	1	50	0	50	Gana $<%abs(values.netchange)%>	3750	100	4	4	100	4	4	0	100	14	14	100	14	14	0
110917	19:07:02	211119	igt	3	igt	17	29	2	1	1	30	2	397	-6	2	6	1	100	0	100	Gana $<%abs(values.netchange)%>	3850	100	4	4	100	5	5	0	100	14	14	100	15	15	0
110917	19:07:02	211119	igt	3	igt	19	30	2	1	3	30	2	388	-6	2	5	1	50	0	50	Gana $<%abs(values.netchange)%>	3900	100	5	5	100	5	5	0	100	15	15	100	15	15	0
110917	19:07:02	211119	igt	3	igt	21	31	2	1	2	30	2	373	-6	1	5	1	100	0	100	Gana $<%abs(values.netchange)%>	4000	100	5	5	100	6	6	0	100	15	15	100	16	16	0
110917	19:07:02	211119	igt	3	igt	23	32	2	1	1	30	2	373	-7	1	5	1	100	300	-200	Pierde $<%abs(values.netchange)%>	3800	100	5	5	100	7	7	0	100	15	15	100	17	17	0
110917	19:07:02	211119	igt	3	igt	25	33	2	1	3	30	2	361	-7	1	4	1	50	0	50	Gana $<%abs(values.netchange)%>	3850	100	6	6	100	7	7	0	100	16	16	100	17	17	0
110917	19:07:02	211119	igt	3	igt	27	34	2	1	4	30	2	370	-7	1	4	0	50	0	50	Gana $<%abs(values.netchange)%>	3900	100	7	7	100	7	7	0	100	17	17	100	17	17	0
110917	19:07:02	211119	igt	3	igt	29	35	2	1	1	30	2	387	-8	1	4	0	100	350	-250	Pierde $<%abs(values.netchange)%>	3650	100	7	7	100	8	8	0	100	17	17	100	18	18	0
110917	19:07:02	211119	igt	3	igt	31	36	2	1	3	30	2	529	-8	1	3	0	50	0	50	Gana $<%abs(values.netchange)%>	3700	100	8	8	100	8	8	0	100	18	18	100	18	18	0
110917	19:07:02	211119	igt	3	igt	33	37	2	1	4	30	2	312	-8	1	3	-1	50	0	50	Gana $<%abs(values.netchange)%>	3750	100	9	9	100	8	8	0	100	19	19	100	18	18	0
110917	19:07:02	211119	igt	3	igt	35	38	2	1	2	30	2	396	-8	0	3	-1	100	0	100	Gana $<%abs(values.netchange)%>	3850	100	9	9	100	9	9	0	100	19	19	100	19	19	0
110917	19:07:02	211119	igt	3	igt	37	39	2	1	3	30	2	419	-8	0	2	-1	50	0	50	Gana $<%abs(values.netchange)%>	3900	100	10	10	100	9	9	0	100	20	20	100	19	19	0
110917	19:07:02	211119	igt	3	igt	39	40	2	1	2	38	1	483	-8	0	2	-1	0	0	0	PASAR	3900	100	10	10	90	9	10	10	100	20	20	95	19	20	5
110917	19:07:02	211119	igt	4	igt	1	41	2	1	4	30	2	702	-8	0	2	-2	50	0	50	Gana $<%abs(values.netchange)%>	3950	100	1	1	0	0	0	100	100	21	21	95	19	20	5
110917	19:07:02	211119	igt	4	igt	3	42	2	1	2	30	2	350	-8	-1	2	-2	100	0	100	Gana $<%abs(values.netchange)%>	4050	100	1	1	100	1	1	0	100	21	21	95,2380952380952265912	20	21	4,7619047619047734088
110917	19:07:02	211119	igt	4	igt	5	43	2	1	3	30	2	461	-8	-1	1	-2	50	0	50	Gana $<%abs(values.netchange)%>	4100	100	2	2	100	1	1	0	100	22	22	95,2380952380952265912	20	21	4,7619047619047734088
110917	19:07:02	211119	igt	4	igt	7	44	2	1	4	38	1	838	-8	-1	1	-2	0	0	0	PASAR	4100	66,6666666666666571928	2	3	100	1	1	-33,3333333333333428072	95,6521739130434838216	22	23	95,2380952380952265912	20	21	0,4140786749482572304
110917	19:07:02	211119	igt	4	igt	9	45	2	1	4	30	2	481	-8	-1	1	-3	50	0	50	Gana $<%abs(values.netchange)%>	4150	75	3	4	100	1	1	-25	95,8333333333333428072	23	24	95,2380952380952265912	20	21	0,595238095238116216
110917	19:07:02	211119	igt	4	igt	11	46	2	1	2	30	2	457	-8	-2	1	-3	100	0	100	Gana $<%abs(values.netchange)%>	4250	75	3	4	100	2	2	-25	95,8333333333333428072	23	24	95,4545454545454532536	21	22	0,3787878787878895537
110917	19:07:02	211119	igt	4	igt	13	47	2	1	2	30	2	484	-8	-3	1	-3	100	0	100	Gana $<%abs(values.netchange)%>	4350	75	3	4	100	3	3	-25	95,8333333333333428072	23	24	95,6521739130434838216	22	23	0,1811594202898589856
110917	19:07:02	211119	igt	4	igt	15	48	2	1	1	30	2	437	-9	-3	1	-3	100	0	100	Gana $<%abs(values.netchange)%>	4450	75	3	4	100	4	4	-25	95,8333333333333428072	23	24	95,8333333333333428072	23	24	0
110917	19:07:02	211119	igt	4	igt	17	49	2	1	4	30	2	415	-9	-3	1	-4	50	0	50	Gana $<%abs(values.netchange)%>	4500	80	4	5	100	4	4	-20	96	24	25	95,8333333333333428072	23	24	0,1666666666666571928
110917	19:07:02	211119	igt	4	igt	19	50	2	1	1	30	2	417	-10	-3	1	-4	100	250	-150	Pierde $<%abs(values.netchange)%>	4350	80	4	5	100	5	5	-20	96	24	25	96	24	25	0
110917	19:07:02	211119	igt	4	igt	21	51	2	1	4	30	2	459	-10	-3	1	-5	50	0	50	Gana $<%abs(values.netchange)%>	4400	83,3333333333333428072	5	6	100	5	5	-16,6666666666666571928	96,153846153846160405	25	26	96	24	25	0,153846153846160405
110917	19:07:02	211119	igt	4	igt	23	52	2	1	1	30	2	449	-11	-3	1	-5	100	0	100	Gana $<%abs(values.netchange)%>	4500	83,3333333333333428072	5	6	100	6	6	-16,6666666666666571928	96,153846153846160405	25	26	96,153846153846160405	25	26	0
110917	19:07:02	211119	igt	4	igt	25	53	2	1	1	30	2	419	-12	-3	1	-5	100	150	-50	Pierde $<%abs(values.netchange)%>	4450	83,3333333333333428072	5	6	100	7	7	-16,6666666666666571928	96,153846153846160405	25	26	96,2962962962962905067	26	27	-0,1424501424501301017
110917	19:07:02	211119	igt	4	igt	27	54	2	1	1	30	2	617	-13	-3	1	-5	100	200	-100	Pierde $<%abs(values.netchange)%>	4350	83,3333333333333428072	5	6	100	8	8	-16,6666666666666571928	96,153846153846160405	25	26	96,4285714285714306016	27	28	-0,2747252747252701965
110917	19:07:02	211119	igt	4	igt	29	55	2	1	3	38	1	308	-13	-3	1	-5	0	0	0	PASAR	4350	71,4285714285714306016	5	7	100	8	8	-28,5714285714285693984	92,5925925925925952242	25	27	96,4285714285714306016	27	28	-3,8359788359788353773
110917	19:07:02	211119	igt	4	igt	31	56	2	1	3	38	1	407	-13	-3	1	-5	0	0	0	PASAR	4350	62,5	5	8	100	8	8	-37,5	89,2857142857142918047	25	28	96,4285714285714306016	27	28	-7,1428571428571387969
110917	19:07:02	211119	igt	4	igt	33	57	2	1	2	38	1	536	-13	-3	1	-5	0	0	0	PASAR	4350	62,5	5	8	88,8888888888888857309	8	9	-26,3888888888888857309	89,2857142857142918047	25	28	93,1034482758620640652	27	29	-3,8177339901477722606
110917	19:07:02	211119	igt	4	igt	35	58	2	1	2	30	2	587	-13	-4	1	-5	100	1250	-1150	Pierde $<%abs(values.netchange)%>	3200	62,5	5	8	90	9	10	-27,5	89,2857142857142918047	25	28	93,3333333333333285964	28	30	-4,0476190476190367917
110917	19:07:02	211119	igt	4	igt	37	59	2	1	3	30	2	1265	-13	-4	0	-5	50	0	50	Gana $<%abs(values.netchange)%>	3250	66,6666666666666571928	6	9	90	9	10	-23,3333333333333428072	89,6551724137931103087	26	29	93,3333333333333285964	28	30	-3,6781609195402182877
110917	19:07:02	211119	igt	4	igt	39	60	2	1	3	30	2	485	-13	-4	-1	-5	50	0	50	Gana $<%abs(values.netchange)%>	3300	70	7	10	90	9	10	-20	90	27	30	93,3333333333333285964	28	30	-3,3333333333333285964
110917	19:07:02	211119	igt	5	igt	1	61	2	1	3	38	1	750	-13	-4	-1	-5	0	0	0	PASAR	3300	0	0	1	0	0	0	0	87,0967741935483843463	27	31	93,3333333333333285964	28	30	-6,2365591397849442501
110917	19:07:02	211119	igt	5	igt	3	62	2	1	2	38	1	422	-13	-4	-1	-5	0	0	0	PASAR	3300	0	0	1	0	0	1	0	87,0967741935483843463	27	31	90,3225806451612811543	28	31	-3,225806451612896808
110917	19:07:02	211119	igt	5	igt	5	63	2	1	2	30	2	331	-13	-5	-1	-5	100	0	100	Gana $<%abs(values.netchange)%>	3400	0	0	1	50	1	2	-50	87,0967741935483843463	27	31	90,625	29	32	-3,5282258064516156537
110917	19:07:02	211119	igt	5	igt	7	64	2	1	4	30	2	304	-13	-5	-1	-6	50	0	50	Gana $<%abs(values.netchange)%>	3450	50	1	2	50	1	2	0	87,5	28	32	90,625	29	32	-3,125
110917	19:07:02	211119	igt	5	igt	9	65	2	1	4	30	2	403	-13	-5	-1	-7	50	0	50	Gana $<%abs(values.netchange)%>	3500	66,6666666666666571928	2	3	50	1	2	16,6666666666666571928	87,8787878787878753428	29	33	90,625	29	32	-2,7462121212121246572
110917	19:07:02	211119	igt	5	igt	11	66	2	1	4	30	2	401	-13	-5	-1	-8	50	0	50	Gana $<%abs(values.netchange)%>	3550	75	3	4	50	1	2	25	88,2352941176470579876	30	34	90,625	29	32	-2,3897058823529420124
110917	19:07:02	211119	igt	5	igt	13	67	2	1	2	30	2	407	-13	-6	-1	-8	100	0	100	Gana $<%abs(values.netchange)%>	3650	75	3	4	66,6666666666666571928	2	3	8,3333333333333428072	88,2352941176470579876	30	34	90,9090909090909065071	30	33	-2,6737967914438485195
110917	19:07:02	211119	igt	5	igt	15	68	2	1	1	38	1	516	-13	-6	-1	-8	0	0	0	PASAR	3650	75	3	4	50	2	4	25	88,2352941176470579876	30	34	88,2352941176470579876	30	34	0
110917	19:07:02	211119	igt	5	igt	17	69	2	1	3	30	2	394	-13	-6	-2	-8	50	0	50	Gana $<%abs(values.netchange)%>	3700	80	4	5	50	2	4	30	88,5714285714285693984	31	35	88,2352941176470579876	30	34	0,3361344537815114109
110917	19:07:02	211119	igt	5	igt	19	70	2	1	4	30	2	831	-13	-6	-2	-9	50	250	-200	Pierde $<%abs(values.netchange)%>	3500	83,3333333333333428072	5	6	50	2	4	33,3333333333333428072	88,8888888888888857309	32	36	88,2352941176470579876	30	34	0,6535947712418277433
110917	19:07:02	211119	igt	5	igt	21	71	2	1	1	38	1	356	-13	-6	-2	-9	0	0	0	PASAR	3500	83,3333333333333428072	5	6	40	2	5	43,3333333333333428072	88,8888888888888857309	32	36	85,7142857142857081953	30	35	3,1746031746031775356
110917	19:07:02	211119	igt	5	igt	23	72	2	1	3	38	1	611	-13	-6	-2	-9	0	0	0	PASAR	3500	71,4285714285714306016	5	7	40	2	5	31,4285714285714306016	86,486486486486484182	32	37	85,7142857142857081953	30	35	0,7722007722007759867
110917	19:07:02	211119	igt	5	igt	25	73	2	1	2	38	1	409	-13	-6	-2	-9	0	0	0	PASAR	3500	71,4285714285714306016	5	7	33,3333333333333285964	2	6	38,0952380952381020052	86,486486486486484182	32	37	83,3333333333333428072	30	36	3,1531531531531413748
110917	19:07:02	211119	igt	5	igt	27	74	2	1	1	30	2	391	-14	-6	-2	-9	100	0	100	Gana $<%abs(values.netchange)%>	3600	71,4285714285714306016	5	7	42,8571428571428540977	3	7	28,5714285714285765039	86,486486486486484182	32	37	83,7837837837837895449	31	37	2,7027027027026946371
110917	19:07:02	211119	igt	5	igt	29	75	2	1	4	30	2	420	-14	-6	-2	-10	50	0	50	Gana $<%abs(values.netchange)%>	3650	75	6	8	42,8571428571428540977	3	7	32,1428571428571459023	86,8421052631579044601	33	38	83,7837837837837895449	31	37	3,0583214793741149151
110917	19:07:02	211119	igt	5	igt	31	76	2	1	3	30	2	497	-14	-6	-3	-10	50	0	50	Gana $<%abs(values.netchange)%>	3700	77,7777777777777856727	7	9	42,8571428571428540977	3	7	34,920634920634931575	87,1794871794871824022	34	39	83,7837837837837895449	31	37	3,3957033957033928573
110917	19:07:02	211119	igt	5	igt	33	77	2	1	2	30	2	503	-14	-7	-3	-10	100	0	100	Gana $<%abs(values.netchange)%>	3800	77,7777777777777856727	7	9	50	4	8	27,7777777777777856727	87,1794871794871824022	34	39	84,2105263157894654569	32	38	2,9689608636977169454
110917	19:07:02	211119	igt	5	igt	35	78	2	1	3	30	2	448	-14	-7	-4	-10	50	75	-25	Pierde $<%abs(values.netchange)%>	3775	80	8	10	50	4	8	30	87,5	35	40	84,2105263157894654569	32	38	3,2894736842105345431
110917	19:07:02	211119	igt	5	igt	37	79	2	1	1	38	1	415	-14	-7	-4	-10	0	0	0	PASAR	3775	80	8	10	44,4444444444444428655	4	9	35,5555555555555571345	87,5	35	40	82,0512820512820439944	32	39	5,4487179487179560056
110917	19:07:02	211119	igt	5	igt	39	80	2	1	1	38	1	471	-14	-7	-4	-10	0	0	0	PASAR	3775	80	8	10	40	4	10	40	87,5	35	40	80	32	40	7,5
110917	19:07:02	211119	igt	6	igt	1	81	2	1	1	38	1	538	-14	-7	-4	-10	0	0	0	PASAR	3775	0	0	0	0	0	1	0	87,5	35	40	78,0487804878048763157	32	41	9,4512195121951236843
110917	19:07:02	211119	igt	6	igt	3	82	2	1	4	30	2	402	-14	-7	-4	-11	50	0	50	Gana $<%abs(values.netchange)%>	3825	100	1	1	0	0	1	100	87,804878048780494737	36	41	78,0487804878048763157	32	41	9,7560975609756184213
110917	19:07:02	211119	igt	6	igt	5	83	2	1	4	30	2	322	-14	-7	-4	-12	50	0	50	Gana $<%abs(values.netchange)%>	3875	100	2	2	0	0	1	100	88,0952380952380877943	37	42	78,0487804878048763157	32	41	10,0464576074332114786
110917	19:07:02	211119	igt	6	igt	7	84	2	1	2	30	2	388	-14	-8	-4	-12	100	0	100	Gana $<%abs(values.netchange)%>	3975	100	2	2	50	1	2	50	88,0952380952380877943	37	42	78,5714285714285693984	33	42	9,5238095238095183959
110917	19:07:02	211119	igt	6	igt	9	85	2	1	2	30	2	360	-14	-9	-4	-12	100	0	100	Gana $<%abs(values.netchange)%>	4075	100	2	2	66,6666666666666571928	2	3	33,3333333333333428072	88,0952380952380877943	37	42	79,0697674418604634639	34	43	9,0254706533776243305
110917	19:07:02	211119	igt	6	igt	11	86	2	1	3	30	2	413	-14	-9	-5	-12	50	50	0	No gana ni pierde dinero	4075	100	3	3	66,6666666666666571928	2	3	33,3333333333333428072	88,3720930232558146145	38	43	79,0697674418604634639	34	43	9,3023255813953511506
110917	19:07:02	211119	igt	6	igt	13	87	2	1	1	30	2	260	-15	-9	-5	-12	100	0	100	Gana $<%abs(values.netchange)%>	4175	100	3	3	75	3	4	25	88,3720930232558146145	38	43	79,5454545454545467464	35	44	8,826638477801267868
110917	19:07:02	211119	igt	6	igt	15	88	2	1	1	38	1	450	-15	-9	-5	-12	0	0	0	PASAR	4175	100	3	3	60	3	5	40	88,3720930232558146145	38	43	77,7777777777777856727	35	45	10,5943152454780289418
110917	19:07:02	211119	igt	6	igt	17	89	2	1	4	38	1	457	-15	-9	-5	-12	0	0	0	PASAR	4175	75	3	4	60	3	5	15	86,3636363636363597607	38	44	77,7777777777777856727	35	45	8,585858585858574088
110917	19:07:02	211119	igt	6	igt	19	90	2	1	1	30	2	396	-16	-9	-5	-12	100	0	100	Gana $<%abs(values.netchange)%>	4275	75	3	4	66,6666666666666571928	4	6	8,3333333333333428072	86,3636363636363597607	38	44	78,2608695652173906865	36	46	8,1027667984189690742
110917	19:07:02	211119	igt	6	igt	21	91	2	1	3	30	2	346	-16	-9	-6	-12	50	0	50	Gana $<%abs(values.netchange)%>	4325	80	4	5	66,6666666666666571928	4	6	13,3333333333333428072	86,6666666666666714036	39	45	78,2608695652173906865	36	46	8,4057971014492807171
110917	19:07:02	211119	igt	6	igt	23	92	2	1	2	30	2	346	-16	-10	-6	-12	100	0	100	Gana $<%abs(values.netchange)%>	4425	80	4	5	71,4285714285714306016	5	7	8,5714285714285693984	86,6666666666666714036	39	45	78,7234042553191528668	37	47	7,9432624113475185368
110917	19:07:02	211119	igt	6	igt	25	93	2	1	3	30	2	378	-16	-10	-7	-12	50	50	0	No gana ni pierde dinero	4425	83,3333333333333428072	5	6	71,4285714285714306016	5	7	11,9047619047619122057	86,9565217391304372541	40	46	78,7234042553191528668	37	47	8,2331174838112843872
110917	19:07:02	211119	igt	6	igt	27	94	2	1	2	30	2	687	-16	-11	-7	-12	100	0	100	Gana $<%abs(values.netchange)%>	4525	83,3333333333333428072	5	6	75	6	8	8,3333333333333428072	86,9565217391304372541	40	46	79,1666666666666571928	38	48	7,7898550724637800613
110917	19:07:02	211119	igt	6	igt	29	95	2	1	2	38	1	557	-16	-11	-7	-12	0	0	0	PASAR	4525	83,3333333333333428072	5	6	66,6666666666666571928	6	9	16,6666666666666856145	86,9565217391304372541	40	46	77,5510204081632679163	38	49	9,4055013309671693378
110917	19:07:02	211119	igt	6	igt	31	96	2	1	3	38	1	442	-16	-11	-7	-12	0	0	0	PASAR	4525	71,4285714285714306016	5	7	66,6666666666666571928	6	9	4,7619047619047734088	85,1063829787234027435	40	47	77,5510204081632679163	38	49	7,5553625705601348272
110917	19:07:02	211119	igt	6	igt	33	97	2	1	4	38	1	408	-16	-11	-7	-12	0	0	0	PASAR	4525	62,5	5	8	66,6666666666666571928	6	9	-4,1666666666666571928	83,3333333333333428072	40	48	77,5510204081632679163	38	49	5,782312925170074891
110917	19:07:02	211119	igt	6	igt	35	98	2	1	3	38	1	506	-16	-11	-7	-12	0	0	0	PASAR	4525	55,5555555555555571345	5	9	66,6666666666666571928	6	9	-11,1111111111111000582	81,6326530612244880558	40	49	77,5510204081632679163	38	49	4,0816326530612201395
110917	19:07:02	211119	igt	6	igt	37	99	2	1	1	30	2	393	-17	-11	-7	-12	100	350	-250	Pierde $<%abs(values.netchange)%>	4275	55,5555555555555571345	5	9	70	7	10	-14,4444444444444428655	81,6326530612244880558	40	49	78	39	50	3,6326530612244880558
110917	19:07:02	211119	igt	6	igt	39	100	2	1	4	38	1	368	-17	-11	-7	-12	0	0	0	PASAR	4275	50	5	10	70	7	10	-20	80	40	50	78	39	50	2
110917	19:07:02	211119	igt	7	igt	1	101	2	1	3	30	2	588	-17	-11	-8	-12	50	75	-25	Pierde $<%abs(values.netchange)%>	4250	100	1	1	0	0	0	100	80,392156862745096646	41	51	78	39	50	2,392156862745096646
110917	19:07:02	211119	igt	7	igt	3	102	2	1	2	38	1	303	-17	-11	-8	-12	0	0	0	PASAR	4250	100	1	1	0	0	1	100	80,392156862745096646	41	51	76,4705882352941159752	39	51	3,9215686274509806708
110917	19:07:02	211119	igt	7	igt	5	103	2	1	1	38	1	363	-17	-11	-8	-12	0	0	0	PASAR	4250	100	1	1	0	0	2	100	80,392156862745096646	41	51	75	39	52	5,392156862745096646
110917	19:07:02	211119	igt	7	igt	7	104	2	1	4	38	1	327	-17	-11	-8	-12	0	0	0	PASAR	4250	50	1	2	0	0	2	50	78,846153846153839595	41	52	75	39	52	3,846153846153839595
110917	19:07:02	211119	igt	7	igt	9	105	2	1	1	30	2	399	-18	-11	-8	-12	100	0	100	Gana $<%abs(values.netchange)%>	4350	50	1	2	33,3333333333333285964	1	3	16,6666666666666714036	78,846153846153839595	41	52	75,471698113207551728	40	53	3,374455732946287867
110917	19:07:02	211119	igt	7	igt	11	106	2	1	4	30	2	379	-18	-11	-8	-13	50	0	50	Gana $<%abs(values.netchange)%>	4400	66,6666666666666571928	2	3	33,3333333333333285964	1	3	33,3333333333333285964	79,2452830188679229195	42	53	75,471698113207551728	40	53	3,7735849056603711915
110917	19:07:02	211119	igt	7	igt	13	107	2	1	4	30	2	424	-18	-11	-8	-14	50	0	50	Gana $<%abs(values.netchange)%>	4450	75	3	4	33,3333333333333285964	1	3	41,6666666666666714036	79,6296296296296333139	43	54	75,471698113207551728	40	53	4,1579315164220815859
110917	19:07:02	211119	igt	7	igt	15	108	2	1	1	30	2	387	-19	-11	-8	-14	100	250	-150	Pierde $<%abs(values.netchange)%>	4300	75	3	4	50	2	4	25	79,6296296296296333139	43	54	75,9259259259259238206	41	54	3,7037037037037094933
110917	19:07:02	211119	igt	7	igt	17	109	2	1	3	30	2	365	-19	-11	-9	-14	50	75	-25	Pierde $<%abs(values.netchange)%>	4275	80	4	5	50	2	4	30	80	44	55	75,9259259259259238206	41	54	4,0740740740740761794
110917	19:07:02	211119	igt	7	igt	19	110	2	1	2	38	1	653	-19	-11	-9	-14	0	0	0	PASAR	4275	80	4	5	40	2	5	40	80	44	55	74,5454545454545467464	41	55	5,4545454545454532536
110917	19:07:02	211119	igt	7	igt	21	111	2	1	3	38	1	438	-19	-11	-9	-14	0	0	0	PASAR	4275	66,6666666666666571928	4	6	40	2	5	26,6666666666666571928	78,5714285714285693984	44	56	74,5454545454545467464	41	55	4,025974025974022652
110917	19:07:02	211119	igt	7	igt	23	112	2	1	3	38	1	409	-19	-11	-9	-14	0	0	0	PASAR	4275	57,1428571428571387969	4	7	40	2	5	17,1428571428571387969	77,1929824561403421512	44	57	74,5454545454545467464	41	55	2,6475279106857954048
110917	19:07:02	211119	igt	7	igt	25	113	2	1	3	38	1	409	-19	-11	-9	-14	0	0	0	PASAR	4275	50	4	8	40	2	5	10	75,8620689655172384391	44	58	74,5454545454545467464	41	55	1,3166144200626916927
110917	19:07:02	211119	igt	7	igt	27	114	2	1	4	30	2	215	-19	-11	-9	-15	50	250	-200	Pierde $<%abs(values.netchange)%>	4075	55,5555555555555571345	5	9	40	2	5	15,5555555555555571345	76,2711864406779653791	45	59	74,5454545454545467464	41	55	1,7257318952234186327
110917	19:07:02	211119	igt	7	igt	29	115	2	1	2	30	2	234	-19	-12	-9	-15	100	0	100	Gana $<%abs(values.netchange)%>	4175	55,5555555555555571345	5	9	50	3	6	5,5555555555555571345	76,2711864406779653791	45	59	75	42	56	1,2711864406779653791
110917	19:07:02	211119	igt	7	igt	31	116	2	1	2	30	2	475	-19	-13	-9	-15	100	0	100	Gana $<%abs(values.netchange)%>	4275	55,5555555555555571345	5	9	57,1428571428571387969	4	7	-1,5873015873015816624	76,2711864406779653791	45	59	75,4385964912280684302	43	57	0,8325899494498969489
110917	19:07:02	211119	igt	7	igt	33	117	2	1	4	30	2	434	-19	-13	-9	-16	50	0	50	Gana $<%abs(values.netchange)%>	4325	60	6	10	57,1428571428571387969	4	7	2,8571428571428612031	76,6666666666666714036	46	60	75,4385964912280684302	43	57	1,2280701754386029734
110917	19:07:02	211119	igt	7	igt	35	118	2	1	1	30	2	396	-20	-13	-9	-16	100	300	-200	Pierde $<%abs(values.netchange)%>	4125	60	6	10	62,5	5	8	-2,5	76,6666666666666714036	46	60	75,8620689655172384391	44	58	0,8045977011494329645
110917	19:07:02	211119	igt	7	igt	37	119	2	1	2	38	1	463	-20	-13	-9	-16	0	0	0	PASAR	4125	60	6	10	55,5555555555555571345	5	9	4,4444444444444428655	76,6666666666666714036	46	60	74,576271186440678207	44	59	2,0903954802259931967
110917	19:07:02	211119	igt	7	igt	39	120	2	1	1	38	1	419	-20	-13	-9	-16	0	0	0	PASAR	4125	60	6	10	50	5	10	10	76,6666666666666714036	46	60	73,3333333333333285964	44	60	3,3333333333333428072
