date	time	subject	blockcode	blocknum	trialcode	trialnum	values.cardoffered	values.groupnumber	values.defaultresponse	values.targetdeck	response	values.response	latency	values.forcedwins1	values.forcedwins2	values.forcedwins3	values.forcedwins4	values.gain	values.loss	values.netchange	expressions.feedback	values.currenttotal	expressions.percent_goodplay_block	values.number_goodplay_block	values.total_gooddeck_block	expressions.percent_badplay_block	values.number_badplay_block	values.total_baddeck_block	expressions.netscore_block	expressions.percent_goodplay	values.number_goodplay	values.total_gooddeck	expressions.percent_badplay	values.number_badplay	values.total_baddeck	expressions.netscore_total
110917	19:40:13	212125	igt	2	igt	1	1	2	1	2	30	2	3631	2	8	12	9	100	0	100	Gana $<%abs(values.netchange)%>	2100	0	0	0	100	1	1	-100	0	0	0	100	1	1	-100
110917	19:40:13	212125	igt	2	igt	3	2	2	1	2	38	1	1616	2	8	12	9	0	0	0	PASAR	2100	0	0	0	50	1	2	-50	0	0	0	50	1	2	-50
110917	19:40:13	212125	igt	2	igt	5	3	2	1	3	30	2	972	2	8	11	9	50	0	50	Gana $<%abs(values.netchange)%>	2150	100	1	1	50	1	2	50	100	1	1	50	1	2	50
110917	19:40:13	212125	igt	2	igt	7	4	2	1	4	30	2	1833	2	8	11	8	50	0	50	Gana $<%abs(values.netchange)%>	2200	100	2	2	50	1	2	50	100	2	2	50	1	2	50
110917	19:40:13	212125	igt	2	igt	9	5	2	1	2	30	2	814	2	7	11	8	100	0	100	Gana $<%abs(values.netchange)%>	2300	100	2	2	66,6666666666666571928	2	3	33,3333333333333428072	100	2	2	66,6666666666666571928	2	3	33,3333333333333428072
110917	19:40:13	212125	igt	2	igt	11	6	2	1	3	38	1	1256	2	7	11	8	0	0	0	PASAR	2300	66,6666666666666571928	2	3	66,6666666666666571928	2	3	0	66,6666666666666571928	2	3	66,6666666666666571928	2	3	0
110917	19:40:13	212125	igt	2	igt	13	7	2	1	2	38	1	1279	2	7	11	8	0	0	0	PASAR	2300	66,6666666666666571928	2	3	50	2	4	16,6666666666666571928	66,6666666666666571928	2	3	50	2	4	16,6666666666666571928
110917	19:40:13	212125	igt	2	igt	15	8	2	1	1	30	2	1940	1	7	11	8	100	0	100	Gana $<%abs(values.netchange)%>	2400	66,6666666666666571928	2	3	60	3	5	6,6666666666666571928	66,6666666666666571928	2	3	60	3	5	6,6666666666666571928
110917	19:40:13	212125	igt	2	igt	17	9	2	1	2	38	1	1381	1	7	11	8	0	0	0	PASAR	2400	66,6666666666666571928	2	3	50	3	6	16,6666666666666571928	66,6666666666666571928	2	3	50	3	6	16,6666666666666571928
110917	19:40:13	212125	igt	2	igt	19	10	2	1	3	30	2	1024	1	7	10	8	50	0	50	Gana $<%abs(values.netchange)%>	2450	75	3	4	50	3	6	25	75	3	4	50	3	6	25
110917	19:40:13	212125	igt	2	igt	21	11	2	1	1	38	1	900	1	7	10	8	0	0	0	PASAR	2450	75	3	4	42,8571428571428540977	3	7	32,1428571428571459023	75	3	4	42,8571428571428540977	3	7	32,1428571428571459023
110917	19:40:13	212125	igt	2	igt	23	12	2	1	4	30	2	876	1	7	10	7	50	0	50	Gana $<%abs(values.netchange)%>	2500	80	4	5	42,8571428571428540977	3	7	37,1428571428571459023	80	4	5	42,8571428571428540977	3	7	37,1428571428571459023
110917	19:40:13	212125	igt	2	igt	25	13	2	1	4	30	2	1073	1	7	10	6	50	0	50	Gana $<%abs(values.netchange)%>	2550	83,3333333333333428072	5	6	42,8571428571428540977	3	7	40,4761904761904887096	83,3333333333333428072	5	6	42,8571428571428540977	3	7	40,4761904761904887096
110917	19:40:13	212125	igt	2	igt	27	14	2	1	1	30	2	1490	0	7	10	6	100	0	100	Gana $<%abs(values.netchange)%>	2650	83,3333333333333428072	5	6	50	4	8	33,3333333333333428072	83,3333333333333428072	5	6	50	4	8	33,3333333333333428072
110917	19:40:13	212125	igt	2	igt	29	15	2	1	4	38	1	1141	0	7	10	6	0	0	0	PASAR	2650	71,4285714285714306016	5	7	50	4	8	21,4285714285714306016	71,4285714285714306016	5	7	50	4	8	21,4285714285714306016
110917	19:40:13	212125	igt	2	igt	31	16	2	1	1	38	1	925	0	7	10	6	0	0	0	PASAR	2650	71,4285714285714306016	5	7	44,4444444444444428655	4	9	26,9841269841269877361	71,4285714285714306016	5	7	44,4444444444444428655	4	9	26,9841269841269877361
110917	19:40:13	212125	igt	2	igt	33	17	2	1	1	38	1	874	0	7	10	6	0	0	0	PASAR	2650	71,4285714285714306016	5	7	40	4	10	31,4285714285714306016	71,4285714285714306016	5	7	40	4	10	31,4285714285714306016
110917	19:40:13	212125	igt	2	igt	35	18	2	1	4	38	1	856	0	7	10	6	0	0	0	PASAR	2650	62,5	5	8	40	4	10	22,5	62,5	5	8	40	4	10	22,5
110917	19:40:13	212125	igt	2	igt	37	19	2	1	3	30	2	879	0	7	9	6	50	0	50	Gana $<%abs(values.netchange)%>	2700	66,6666666666666571928	6	9	40	4	10	26,6666666666666571928	66,6666666666666571928	6	9	40	4	10	26,6666666666666571928
110917	19:40:13	212125	igt	2	igt	39	20	2	1	3	30	2	848	0	7	8	6	50	0	50	Gana $<%abs(values.netchange)%>	2750	70	7	10	40	4	10	30	70	7	10	40	4	10	30
110917	19:40:13	212125	igt	3	igt	1	21	2	1	4	30	2	930	0	7	8	5	50	0	50	Gana $<%abs(values.netchange)%>	2800	100	1	1	0	0	0	100	72,7272727272727337322	8	11	40	4	10	32,7272727272727337322
110917	19:40:13	212125	igt	3	igt	3	22	2	1	3	30	2	741	0	7	7	5	50	0	50	Gana $<%abs(values.netchange)%>	2850	100	2	2	0	0	0	100	75	9	12	40	4	10	35
110917	19:40:13	212125	igt	3	igt	5	23	2	1	3	38	1	544	0	7	7	5	0	0	0	PASAR	2850	66,6666666666666571928	2	3	0	0	0	66,6666666666666571928	69,2307692307692263967	9	13	40	4	10	29,2307692307692263967
110917	19:40:13	212125	igt	3	igt	7	24	2	1	2	30	2	612	0	6	7	5	100	0	100	Gana $<%abs(values.netchange)%>	2950	66,6666666666666571928	2	3	100	1	1	-33,3333333333333428072	69,2307692307692263967	9	13	45,4545454545454532536	5	11	23,7762237762237731431
110917	19:40:13	212125	igt	3	igt	9	25	2	1	1	30	2	1805	-1	6	7	5	100	0	100	Gana $<%abs(values.netchange)%>	3050	66,6666666666666571928	2	3	100	2	2	-33,3333333333333428072	69,2307692307692263967	9	13	50	6	12	19,2307692307692263967
110917	19:40:13	212125	igt	3	igt	11	26	2	1	2	30	2	841	-1	5	7	5	100	0	100	Gana $<%abs(values.netchange)%>	3150	66,6666666666666571928	2	3	100	3	3	-33,3333333333333428072	69,2307692307692263967	9	13	53,8461538461538467004	7	13	15,3846153846153796962
110917	19:40:13	212125	igt	3	igt	13	27	2	1	1	30	2	1208	-2	5	7	5	100	300	-200	Pierde $<%abs(values.netchange)%>	2950	66,6666666666666571928	2	3	100	4	4	-33,3333333333333428072	69,2307692307692263967	9	13	57,1428571428571387969	8	14	12,0879120879120875998
110917	19:40:13	212125	igt	3	igt	15	28	2	1	3	38	1	574	-2	5	7	5	0	0	0	PASAR	2950	50	2	4	100	4	4	-50	64,2857142857142918047	9	14	57,1428571428571387969	8	14	7,1428571428571530078
110917	19:40:13	212125	igt	3	igt	17	29	2	1	2	30	2	734	-2	4	7	5	100	0	100	Gana $<%abs(values.netchange)%>	3050	50	2	4	100	5	5	-50	64,2857142857142918047	9	14	60	9	15	4,2857142857142918047
110917	19:40:13	212125	igt	3	igt	19	30	2	1	4	30	2	858	-2	4	7	4	50	0	50	Gana $<%abs(values.netchange)%>	3100	60	3	5	100	5	5	-40	66,6666666666666571928	10	15	60	9	15	6,6666666666666571928
110917	19:40:13	212125	igt	3	igt	21	31	2	1	4	38	1	570	-2	4	7	4	0	0	0	PASAR	3100	50	3	6	100	5	5	-50	62,5	10	16	60	9	15	2,5
110917	19:40:13	212125	igt	3	igt	23	32	2	1	1	38	1	1357	-2	4	7	4	0	0	0	PASAR	3100	50	3	6	83,3333333333333428072	5	6	-33,3333333333333428072	62,5	10	16	56,25	9	16	6,25
110917	19:40:13	212125	igt	3	igt	25	33	2	1	4	30	2	869	-2	4	7	3	50	0	50	Gana $<%abs(values.netchange)%>	3150	57,1428571428571387969	4	7	83,3333333333333428072	5	6	-26,1904761904762040103	64,7058823529411739628	11	17	56,25	9	16	8,4558823529411739628
110917	19:40:13	212125	igt	3	igt	27	34	2	1	4	38	1	689	-2	4	7	3	0	0	0	PASAR	3150	50	4	8	83,3333333333333428072	5	6	-33,3333333333333428072	61,1111111111111142691	11	18	56,25	9	16	4,8611111111111142691
110917	19:40:13	212125	igt	3	igt	29	35	2	1	2	30	2	666	-2	3	7	3	100	0	100	Gana $<%abs(values.netchange)%>	3250	50	4	8	85,7142857142857081953	6	7	-35,7142857142857081953	61,1111111111111142691	11	18	58,823529411764710062	10	17	2,2875816993464042071
110917	19:40:13	212125	igt	3	igt	31	36	2	1	1	30	2	930	-3	3	7	3	100	200	-100	Pierde $<%abs(values.netchange)%>	3150	50	4	8	87,5	7	8	-37,5	61,1111111111111142691	11	18	61,1111111111111142691	11	18	0
110917	19:40:13	212125	igt	3	igt	33	37	2	1	2	30	2	1011	-3	2	7	3	100	0	100	Gana $<%abs(values.netchange)%>	3250	50	4	8	88,8888888888888857309	8	9	-38,8888888888888857309	61,1111111111111142691	11	18	63,1578947368421026454	12	19	-2,0467836257309883763
110917	19:40:13	212125	igt	3	igt	35	38	2	1	3	30	2	925	-3	2	6	3	50	0	50	Gana $<%abs(values.netchange)%>	3300	55,5555555555555571345	5	9	88,8888888888888857309	8	9	-33,3333333333333285964	63,1578947368421026454	12	19	63,1578947368421026454	12	19	0
110917	19:40:13	212125	igt	3	igt	37	39	2	1	1	30	2	908	-4	2	6	3	100	150	-50	Pierde $<%abs(values.netchange)%>	3250	55,5555555555555571345	5	9	90	9	10	-34,4444444444444428655	63,1578947368421026454	12	19	65	13	20	-1,8421052631578973546
110917	19:40:13	212125	igt	3	igt	39	40	2	1	3	38	1	1424	-4	2	6	3	0	0	0	PASAR	3250	50	5	10	90	9	10	-40	60	12	20	65	13	20	-5
110917	19:40:13	212125	igt	4	igt	1	41	2	1	1	38	1	583	-4	2	6	3	0	0	0	PASAR	3250	0	0	0	0	0	1	0	60	12	20	61,9047619047619051003	13	21	-1,9047619047619051003
110917	19:40:13	212125	igt	4	igt	3	42	2	1	3	38	1	643	-4	2	6	3	0	0	0	PASAR	3250	0	0	1	0	0	1	0	57,1428571428571387969	12	21	61,9047619047619051003	13	21	-4,7619047619047663034
110917	19:40:13	212125	igt	4	igt	5	43	2	1	1	30	2	734	-5	2	6	3	100	350	-250	Pierde $<%abs(values.netchange)%>	3000	0	0	1	50	1	2	-50	57,1428571428571387969	12	21	63,6363636363636331339	14	22	-6,493506493506494337
110917	19:40:13	212125	igt	4	igt	7	44	2	1	4	30	2	1283	-5	2	6	2	50	0	50	Gana $<%abs(values.netchange)%>	3050	50	1	2	50	1	2	0	59,0909090909090934929	13	22	63,6363636363636331339	14	22	-4,545454545454539641
110917	19:40:13	212125	igt	4	igt	9	45	2	1	1	30	2	896	-6	2	6	2	100	0	100	Gana $<%abs(values.netchange)%>	3150	50	1	2	66,6666666666666571928	2	3	-16,6666666666666571928	59,0909090909090934929	13	22	65,2173913043478279405	15	23	-6,1264822134387344477
110917	19:40:13	212125	igt	4	igt	11	46	2	1	3	30	2	638	-6	2	5	2	50	0	50	Gana $<%abs(values.netchange)%>	3200	66,6666666666666571928	2	3	66,6666666666666571928	2	3	0	60,8695652173913117622	14	23	65,2173913043478279405	15	23	-4,3478260869565161784
110917	19:40:13	212125	igt	4	igt	13	47	2	1	2	30	2	662	-6	1	5	2	100	0	100	Gana $<%abs(values.netchange)%>	3300	66,6666666666666571928	2	3	75	3	4	-8,3333333333333428072	60,8695652173913117622	14	23	66,6666666666666571928	16	24	-5,7971014492753454306
110917	19:40:13	212125	igt	4	igt	15	48	2	1	2	38	1	589	-6	1	5	2	0	0	0	PASAR	3300	66,6666666666666571928	2	3	60	3	5	6,6666666666666571928	60,8695652173913117622	14	23	64	16	25	-3,1304347826086882378
110917	19:40:13	212125	igt	4	igt	17	49	2	1	3	30	2	955	-6	1	4	2	50	0	50	Gana $<%abs(values.netchange)%>	3350	75	3	4	60	3	5	15	62,5	15	24	64	16	25	-1,5
110917	19:40:13	212125	igt	4	igt	19	50	2	1	4	30	2	619	-6	1	4	1	50	0	50	Gana $<%abs(values.netchange)%>	3400	80	4	5	60	3	5	20	64	16	25	64	16	25	0
110917	19:40:13	212125	igt	4	igt	21	51	2	1	1	30	2	727	-7	1	4	1	100	0	100	Gana $<%abs(values.netchange)%>	3500	80	4	5	66,6666666666666571928	4	6	13,3333333333333428072	64	16	25	65,3846153846153868017	17	26	-1,3846153846153868017
110917	19:40:13	212125	igt	4	igt	23	52	2	1	2	30	2	726	-7	0	4	1	100	0	100	Gana $<%abs(values.netchange)%>	3600	80	4	5	71,4285714285714306016	5	7	8,5714285714285693984	64	16	25	66,6666666666666571928	18	27	-2,6666666666666571928
110917	19:40:13	212125	igt	4	igt	25	53	2	1	1	30	2	683	-8	0	4	1	100	0	100	Gana $<%abs(values.netchange)%>	3700	80	4	5	75	6	8	5	64	16	25	67,8571428571428612031	19	28	-3,8571428571428612031
110917	19:40:13	212125	igt	4	igt	27	54	2	1	4	38	1	817	-8	0	4	1	0	0	0	PASAR	3700	66,6666666666666571928	4	6	75	6	8	-8,3333333333333428072	61,5384615384615401013	16	26	67,8571428571428612031	19	28	-6,3186813186813211018
110917	19:40:13	212125	igt	4	igt	29	55	2	1	4	30	2	907	-8	0	4	0	50	0	50	Gana $<%abs(values.netchange)%>	3750	71,4285714285714306016	5	7	75	6	8	-3,5714285714285693984	62,9629629629629619103	17	27	67,8571428571428612031	19	28	-4,8941798941798992928
110917	19:40:13	212125	igt	4	igt	31	56	2	1	3	30	2	715	-8	0	3	0	50	0	50	Gana $<%abs(values.netchange)%>	3800	75	6	8	75	6	8	0	64,2857142857142918047	18	28	67,8571428571428612031	19	28	-3,5714285714285693984
110917	19:40:13	212125	igt	4	igt	33	57	2	1	3	38	1	589	-8	0	3	0	0	0	0	PASAR	3800	66,6666666666666571928	6	9	75	6	8	-8,3333333333333428072	62,0689655172413807804	18	29	67,8571428571428612031	19	28	-5,7881773399014804227
110917	19:40:13	212125	igt	4	igt	35	58	2	1	4	30	2	673	-8	0	3	-1	50	0	50	Gana $<%abs(values.netchange)%>	3850	70	7	10	75	6	8	-5	63,3333333333333285964	19	30	67,8571428571428612031	19	28	-4,5238095238095326067
110917	19:40:13	212125	igt	4	igt	37	59	2	1	2	30	2	1226	-8	-1	3	-1	100	0	100	Gana $<%abs(values.netchange)%>	3950	70	7	10	77,7777777777777856727	7	9	-7,7777777777777856727	63,3333333333333285964	19	30	68,9655172413793167152	20	29	-5,6321839080459881188
110917	19:40:13	212125	igt	4	igt	39	60	2	1	2	38	1	604	-8	-1	3	-1	0	0	0	PASAR	3950	70	7	10	70	7	10	0	63,3333333333333285964	19	30	66,6666666666666571928	20	30	-3,3333333333333285964
110917	19:40:13	212125	igt	5	igt	1	61	2	1	2	30	2	1214	-8	-2	3	-1	100	0	100	Gana $<%abs(values.netchange)%>	4050	0	0	0	100	1	1	-100	63,3333333333333285964	19	30	67,7419354838709608657	21	31	-4,4086021505376322693
110917	19:40:13	212125	igt	5	igt	3	62	2	1	4	30	2	849	-8	-2	3	-2	50	0	50	Gana $<%abs(values.netchange)%>	4100	100	1	1	100	1	1	0	64,5161290322580640577	20	31	67,7419354838709608657	21	31	-3,225806451612896808
110917	19:40:13	212125	igt	5	igt	5	63	2	1	1	30	2	416	-9	-2	3	-2	100	250	-150	Pierde $<%abs(values.netchange)%>	3950	100	1	1	100	2	2	0	64,5161290322580640577	20	31	68,75	22	32	-4,2338709677419359423
110917	19:40:13	212125	igt	5	igt	7	64	2	1	3	30	2	811	-9	-2	2	-2	50	0	50	Gana $<%abs(values.netchange)%>	4000	100	2	2	100	2	2	0	65,625	21	32	68,75	22	32	-3,125
110917	19:40:13	212125	igt	5	igt	9	65	2	1	3	38	1	591	-9	-2	2	-2	0	0	0	PASAR	4000	66,6666666666666571928	2	3	100	2	2	-33,3333333333333428072	63,6363636363636331339	21	33	68,75	22	32	-5,1136363636363668661
110917	19:40:13	212125	igt	5	igt	11	66	2	1	4	30	2	617	-9	-2	2	-3	50	250	-200	Pierde $<%abs(values.netchange)%>	3800	75	3	4	100	2	2	-25	64,7058823529411739628	22	34	68,75	22	32	-4,0441176470588260372
110917	19:40:13	212125	igt	5	igt	13	67	2	1	3	38	1	1085	-9	-2	2	-3	0	0	0	PASAR	3800	60	3	5	100	2	2	-40	62,8571428571428540977	22	35	68,75	22	32	-5,8928571428571459023
110917	19:40:13	212125	igt	5	igt	15	68	2	1	2	30	2	871	-9	-3	2	-3	100	0	100	Gana $<%abs(values.netchange)%>	3900	60	3	5	100	3	3	-40	62,8571428571428540977	22	35	69,6969696969697025679	23	33	-6,8398268398268484702
110917	19:40:13	212125	igt	5	igt	17	69	2	1	1	30	2	664	-10	-3	2	-3	100	0	100	Gana $<%abs(values.netchange)%>	4000	60	3	5	100	4	4	-40	62,8571428571428540977	22	35	70,5882352941176520744	24	34	-7,7310924369747979767
110917	19:40:13	212125	igt	5	igt	19	70	2	1	1	38	1	578	-10	-3	2	-3	0	0	0	PASAR	4000	60	3	5	80	4	5	-20	62,8571428571428540977	22	35	68,5714285714285693984	24	35	-5,7142857142857153008
110917	19:40:13	212125	igt	5	igt	21	71	2	1	2	30	2	638	-10	-4	2	-3	100	0	100	Gana $<%abs(values.netchange)%>	4100	60	3	5	83,3333333333333428072	5	6	-23,3333333333333428072	62,8571428571428540977	22	35	69,4444444444444428655	25	36	-6,5873015873015887678
110917	19:40:13	212125	igt	5	igt	23	72	2	1	4	30	2	826	-10	-4	2	-4	50	0	50	Gana $<%abs(values.netchange)%>	4150	66,6666666666666571928	4	6	83,3333333333333428072	5	6	-16,6666666666666856145	63,8888888888888857309	23	36	69,4444444444444428655	25	36	-5,5555555555555571345
110917	19:40:13	212125	igt	5	igt	25	73	2	1	3	30	2	1164	-10	-4	1	-4	50	0	50	Gana $<%abs(values.netchange)%>	4200	71,4285714285714306016	5	7	83,3333333333333428072	5	6	-11,9047619047619122057	64,8648648648648702419	24	37	69,4444444444444428655	25	36	-4,5795795795795726235
110917	19:40:13	212125	igt	5	igt	27	74	2	1	2	30	2	1301	-10	-5	1	-4	100	0	100	Gana $<%abs(values.netchange)%>	4300	71,4285714285714306016	5	7	85,7142857142857081953	6	7	-14,2857142857142775938	64,8648648648648702419	24	37	70,270270270270273727	26	37	-5,405405405405403485
110917	19:40:13	212125	igt	5	igt	29	75	2	1	2	38	1	566	-10	-5	1	-4	0	0	0	PASAR	4300	71,4285714285714306016	5	7	75	6	8	-3,5714285714285693984	64,8648648648648702419	24	37	68,4210526315789451246	26	38	-3,5561877667140748827
110917	19:40:13	212125	igt	5	igt	31	76	2	1	1	30	2	584	-11	-5	1	-4	100	350	-250	Pierde $<%abs(values.netchange)%>	4050	71,4285714285714306016	5	7	77,7777777777777856727	7	9	-6,3492063492063550711	64,8648648648648702419	24	37	69,2307692307692263967	27	39	-4,3659043659043561547
110917	19:40:13	212125	igt	5	igt	33	77	2	1	4	30	2	1211	-11	-5	1	-5	50	0	50	Gana $<%abs(values.netchange)%>	4100	75	6	8	77,7777777777777856727	7	9	-2,7777777777777856727	65,7894736842105345431	25	38	69,2307692307692263967	27	39	-3,4412955465586918535
110917	19:40:13	212125	igt	5	igt	35	78	2	1	3	30	2	701	-11	-5	0	-5	50	0	50	Gana $<%abs(values.netchange)%>	4150	77,7777777777777856727	7	9	77,7777777777777856727	7	9	0	66,6666666666666571928	26	39	69,2307692307692263967	27	39	-2,5641025641025692039
110917	19:40:13	212125	igt	5	igt	37	79	2	1	1	30	2	1366	-12	-5	0	-5	100	300	-200	Pierde $<%abs(values.netchange)%>	3950	77,7777777777777856727	7	9	80	8	10	-2,2222222222222143273	66,6666666666666571928	26	39	70	28	40	-3,3333333333333428072
110917	19:40:13	212125	igt	5	igt	39	80	2	1	4	30	2	863	-12	-5	0	-6	50	0	50	Gana $<%abs(values.netchange)%>	4000	80	8	10	80	8	10	0	67,5	27	40	70	28	40	-2,5
110917	19:40:13	212125	igt	6	igt	1	81	2	1	3	30	2	1627	-12	-5	-1	-6	50	50	0	No gana ni pierde dinero	4000	100	1	1	0	0	0	100	68,2926829268292721054	28	41	70	28	40	-1,7073170731707278946
110917	19:40:13	212125	igt	6	igt	3	82	2	1	1	30	2	1247	-13	-5	-1	-6	100	150	-50	Pierde $<%abs(values.netchange)%>	3950	100	1	1	100	1	1	0	68,2926829268292721054	28	41	70,731707317073173158	29	41	-2,4390243902439010526
110917	19:40:13	212125	igt	6	igt	5	83	2	1	1	38	1	619	-13	-5	-1	-6	0	0	0	PASAR	3950	100	1	1	50	1	2	50	68,2926829268292721054	28	41	69,0476190476190510026	29	42	-0,7549361207897788972
110917	19:40:13	212125	igt	6	igt	7	84	2	1	4	30	2	392	-13	-5	-1	-7	50	0	50	Gana $<%abs(values.netchange)%>	4000	100	2	2	50	1	2	50	69,0476190476190510026	29	42	69,0476190476190510026	29	42	0
110917	19:40:13	212125	igt	6	igt	9	85	2	1	4	38	1	523	-13	-5	-1	-7	0	0	0	PASAR	4000	66,6666666666666571928	2	3	50	1	2	16,6666666666666571928	67,4418604651162780783	29	43	69,0476190476190510026	29	42	-1,6057585825027729243
110917	19:40:13	212125	igt	6	igt	11	86	2	1	3	30	2	688	-13	-5	-2	-7	50	0	50	Gana $<%abs(values.netchange)%>	4050	75	3	4	50	1	2	25	68,1818181818181727749	30	44	69,0476190476190510026	29	42	-0,8658008658008782277
110917	19:40:13	212125	igt	6	igt	13	87	2	1	4	30	2	996	-13	-5	-2	-8	50	0	50	Gana $<%abs(values.netchange)%>	4100	80	4	5	50	1	2	30	68,8888888888888857309	31	45	69,0476190476190510026	29	42	-0,1587301587301652717
110917	19:40:13	212125	igt	6	igt	15	88	2	1	2	30	2	668	-13	-6	-2	-8	100	0	100	Gana $<%abs(values.netchange)%>	4200	80	4	5	66,6666666666666571928	2	3	13,3333333333333428072	68,8888888888888857309	31	45	69,7674418604651123132	30	43	-0,8785529715762265823
110917	19:40:13	212125	igt	6	igt	17	89	2	1	1	30	2	838	-14	-6	-2	-8	100	0	100	Gana $<%abs(values.netchange)%>	4300	80	4	5	75	3	4	5	68,8888888888888857309	31	45	70,4545454545454532536	31	44	-1,5656565656565675226
110917	19:40:13	212125	igt	6	igt	19	90	2	1	3	30	2	888	-14	-6	-3	-8	50	50	0	No gana ni pierde dinero	4300	83,3333333333333428072	5	6	75	3	4	8,3333333333333428072	69,5652173913043441189	32	46	70,4545454545454532536	31	44	-0,8893280632411091347
110917	19:40:13	212125	igt	6	igt	21	91	2	1	2	30	2	582	-14	-7	-3	-8	100	0	100	Gana $<%abs(values.netchange)%>	4400	83,3333333333333428072	5	6	80	4	5	3,3333333333333428072	69,5652173913043441189	32	46	71,1111111111111142691	32	45	-1,5458937198067701502
110917	19:40:13	212125	igt	6	igt	23	92	2	1	3	30	2	865	-14	-7	-4	-8	50	0	50	Gana $<%abs(values.netchange)%>	4450	85,7142857142857081953	6	7	80	4	5	5,7142857142857081953	70,2127659574468054871	33	47	71,1111111111111142691	32	45	-0,898345153664308782
110917	19:40:13	212125	igt	6	igt	25	93	2	1	2	30	2	1610	-14	-8	-4	-8	100	1250	-1150	Pierde $<%abs(values.netchange)%>	3300	85,7142857142857081953	6	7	83,3333333333333428072	5	6	2,3809523809523653881	70,2127659574468054871	33	47	71,7391304347826093135	33	46	-1,5263644773358038265
110917	19:40:13	212125	igt	6	igt	27	94	2	1	2	30	2	3486	-14	-9	-4	-8	100	0	100	Gana $<%abs(values.netchange)%>	3400	85,7142857142857081953	6	7	85,7142857142857081953	6	7	0	70,2127659574468054871	33	47	72,3404255319149029901	34	47	-2,1276595744680975031
110917	19:40:13	212125	igt	6	igt	29	95	2	1	3	30	2	613	-14	-9	-5	-8	50	75	-25	Pierde $<%abs(values.netchange)%>	3375	87,5	7	8	85,7142857142857081953	6	7	1,7857142857142918047	70,8333333333333428072	34	48	72,3404255319149029901	34	47	-1,5070921985815601829
110917	19:40:13	212125	igt	6	igt	31	96	2	1	1	30	2	350	-15	-9	-5	-8	100	250	-150	Pierde $<%abs(values.netchange)%>	3225	87,5	7	8	87,5	7	8	0	70,8333333333333428072	34	48	72,9166666666666571928	35	48	-2,0833333333333143855
110917	19:40:13	212125	igt	6	igt	33	97	2	1	4	30	2	409	-15	-9	-5	-9	50	0	50	Gana $<%abs(values.netchange)%>	3275	88,8888888888888857309	8	9	87,5	7	8	1,3888888888888857309	71,4285714285714306016	35	49	72,9166666666666571928	35	48	-1,4880952380952265912
110917	19:40:13	212125	igt	6	igt	35	98	2	1	1	38	1	1315	-15	-9	-5	-9	0	0	0	PASAR	3275	88,8888888888888857309	8	9	77,7777777777777856727	7	9	11,1111111111111000582	71,4285714285714306016	35	49	71,4285714285714306016	35	49	0
110917	19:40:13	212125	igt	6	igt	37	99	2	1	2	30	2	758	-15	-10	-5	-9	100	0	100	Gana $<%abs(values.netchange)%>	3375	88,8888888888888857309	8	9	80	8	10	8,8888888888888857309	71,4285714285714306016	35	49	72	36	50	-0,5714285714285693984
110917	19:40:13	212125	igt	6	igt	39	100	2	1	4	30	2	1823	-15	-10	-5	-10	50	0	50	Gana $<%abs(values.netchange)%>	3425	90	9	10	80	8	10	10	72	36	50	72	36	50	0
110917	19:40:13	212125	igt	7	igt	1	101	2	1	1	30	2	906	-16	-10	-5	-10	100	0	100	Gana $<%abs(values.netchange)%>	3525	0	0	0	100	1	1	-100	72	36	50	72,5490196078431353044	37	51	-0,5490196078431353044
110917	19:40:13	212125	igt	7	igt	3	102	2	1	1	30	2	929	-17	-10	-5	-10	100	0	100	Gana $<%abs(values.netchange)%>	3625	0	0	0	100	2	2	-100	72	36	50	73,0769230769230659917	38	52	-1,0769230769230659917
110917	19:40:13	212125	igt	7	igt	5	103	2	1	3	30	2	638	-17	-10	-6	-10	50	0	50	Gana $<%abs(values.netchange)%>	3675	100	1	1	100	2	2	0	72,5490196078431353044	37	51	73,0769230769230659917	38	52	-0,5279034690799306873
110917	19:40:13	212125	igt	7	igt	7	104	2	1	2	30	2	528	-17	-11	-6	-10	100	1250	-1150	Pierde $<%abs(values.netchange)%>	2525	100	1	1	100	3	3	0	72,5490196078431353044	37	51	73,5849056603773590268	39	53	-1,0358860525342237224
110917	19:40:13	212125	igt	7	igt	9	105	2	1	2	30	2	1546	-17	-12	-6	-10	100	0	100	Gana $<%abs(values.netchange)%>	2625	100	1	1	100	4	4	0	72,5490196078431353044	37	51	74,0740740740740761794	40	54	-1,525054466230940875
110917	19:40:13	212125	igt	7	igt	11	106	2	1	1	30	2	842	-18	-12	-6	-10	100	0	100	Gana $<%abs(values.netchange)%>	2725	100	1	1	100	5	5	0	72,5490196078431353044	37	51	74,5454545454545467464	41	55	-1,996434937611411442
110917	19:40:13	212125	igt	7	igt	13	107	2	1	3	30	2	566	-18	-12	-7	-10	50	0	50	Gana $<%abs(values.netchange)%>	2775	100	2	2	100	5	5	0	73,0769230769230659917	38	52	74,5454545454545467464	41	55	-1,4685314685314807548
110917	19:40:13	212125	igt	7	igt	15	108	2	1	4	30	2	469	-18	-12	-7	-11	50	0	50	Gana $<%abs(values.netchange)%>	2825	100	3	3	100	5	5	0	73,5849056603773590268	39	53	74,5454545454545467464	41	55	-0,9605488850771877196
110917	19:40:13	212125	igt	7	igt	17	109	2	1	2	30	2	487	-18	-13	-7	-11	100	0	100	Gana $<%abs(values.netchange)%>	2925	100	3	3	100	6	6	0	73,5849056603773590268	39	53	75	42	56	-1,4150943396226409732
110917	19:40:13	212125	igt	7	igt	19	110	2	1	2	30	2	760	-18	-14	-7	-11	100	0	100	Gana $<%abs(values.netchange)%>	3025	100	3	3	100	7	7	0	73,5849056603773590268	39	53	75,4385964912280684302	43	57	-1,8536908308507094034
110917	19:40:13	212125	igt	7	igt	21	111	2	1	4	38	1	1086	-18	-14	-7	-11	0	0	0	PASAR	3025	75	3	4	100	7	7	-25	72,2222222222222143273	39	54	75,4385964912280684302	43	57	-3,2163742690058541029
110917	19:40:13	212125	igt	7	igt	23	112	2	1	3	38	1	1111	-18	-14	-7	-11	0	0	0	PASAR	3025	60	3	5	100	7	7	-40	70,9090909090909065071	39	55	75,4385964912280684302	43	57	-4,5295055821371619231
110917	19:40:13	212125	igt	7	igt	25	113	2	1	4	30	2	993	-18	-14	-7	-12	50	0	50	Gana $<%abs(values.netchange)%>	3075	66,6666666666666571928	4	6	100	7	7	-33,3333333333333428072	71,4285714285714306016	40	56	75,4385964912280684302	43	57	-4,0100250626566378287
110917	19:40:13	212125	igt	7	igt	27	114	2	1	3	30	2	1008	-18	-14	-8	-12	50	75	-25	Pierde $<%abs(values.netchange)%>	3050	71,4285714285714306016	5	7	100	7	7	-28,5714285714285693984	71,9298245614035067774	41	57	75,4385964912280684302	43	57	-3,5087719298245616528
110917	19:40:13	212125	igt	7	igt	29	115	2	1	3	38	1	329	-18	-14	-8	-12	0	0	0	PASAR	3050	62,5	5	8	100	7	7	-37,5	70,6896551724137935935	41	58	75,4385964912280684302	43	57	-4,7489413188142748368
110917	19:40:13	212125	igt	7	igt	31	116	2	1	4	30	2	555	-18	-14	-8	-13	50	250	-200	Pierde $<%abs(values.netchange)%>	2850	66,6666666666666571928	6	9	100	7	7	-33,3333333333333428072	71,1864406779661038627	42	59	75,4385964912280684302	43	57	-4,2521558132619645676
110917	19:40:13	212125	igt	7	igt	33	117	2	1	1	30	2	593	-19	-14	-8	-13	100	0	100	Gana $<%abs(values.netchange)%>	2950	66,6666666666666571928	6	9	100	8	8	-33,3333333333333428072	71,1864406779661038627	42	59	75,8620689655172384391	44	58	-4,6756282875511345765
110917	19:40:13	212125	igt	7	igt	35	118	2	1	2	30	2	1214	-19	-15	-8	-13	100	0	100	Gana $<%abs(values.netchange)%>	3050	66,6666666666666571928	6	9	100	9	9	-33,3333333333333428072	71,1864406779661038627	42	59	76,2711864406779653791	45	59	-5,0847457627118615164
110917	19:40:13	212125	igt	7	igt	37	119	2	1	4	38	1	1401	-19	-15	-8	-13	0	0	0	PASAR	3050	60	6	10	100	9	9	-40	70	42	60	76,2711864406779653791	45	59	-6,2711864406779653791
110917	19:40:13	212125	igt	7	igt	39	120	2	1	1	30	2	478	-20	-15	-8	-13	100	200	-100	Pierde $<%abs(values.netchange)%>	2950	60	6	10	100	10	10	-40	70	42	60	76,6666666666666714036	46	60	-6,6666666666666714036
