date	time	subject	blockcode	blocknum	trialcode	trialnum	values.cardoffered	values.groupnumber	values.defaultresponse	values.targetdeck	response	values.response	latency	values.forcedwins1	values.forcedwins2	values.forcedwins3	values.forcedwins4	values.gain	values.loss	values.netchange	expressions.feedback	values.currenttotal	expressions.percent_goodplay_block	values.number_goodplay_block	values.total_gooddeck_block	expressions.percent_badplay_block	values.number_badplay_block	values.total_baddeck_block	expressions.netscore_block	expressions.percent_goodplay	values.number_goodplay	values.total_gooddeck	expressions.percent_badplay	values.number_badplay	values.total_baddeck	expressions.netscore_total
111417	19:39:19	211136	igt	2	igt	1	1	1	1	4	38	1	1696	2	9	12	9	0	0	0	PASAR	2000	0	0	1	0	0	0	0	0	0	1	0	0	0	0
111417	19:39:19	211136	igt	2	igt	3	2	1	1	4	0	1	4000	2	9	12	9	0	0	0	PASAR	2000	0	0	2	0	0	0	0	0	0	2	0	0	0	0
111417	19:39:19	211136	igt	2	igt	5	3	1	1	3	30	2	1586	2	9	11	9	50	0	50	Gana $<%abs(values.netchange)%>	2050	33,3333333333333285964	1	3	0	0	0	33,3333333333333285964	33,3333333333333285964	1	3	0	0	0	33,3333333333333285964
111417	19:39:19	211136	igt	2	igt	7	4	1	1	1	30	2	1803	1	9	11	9	100	0	100	Gana $<%abs(values.netchange)%>	2150	33,3333333333333285964	1	3	100	1	1	-66,6666666666666714036	33,3333333333333285964	1	3	100	1	1	-66,6666666666666714036
111417	19:39:19	211136	igt	2	igt	9	5	1	1	3	30	2	1699	1	9	10	9	50	0	50	Gana $<%abs(values.netchange)%>	2200	50	2	4	100	1	1	-50	50	2	4	100	1	1	-50
111417	19:39:19	211136	igt	2	igt	11	6	1	1	4	30	2	800	1	9	10	8	50	0	50	Gana $<%abs(values.netchange)%>	2250	60	3	5	100	1	1	-40	60	3	5	100	1	1	-40
111417	19:39:19	211136	igt	2	igt	13	7	1	1	3	38	1	1188	1	9	10	8	0	0	0	PASAR	2250	50	3	6	100	1	1	-50	50	3	6	100	1	1	-50
111417	19:39:19	211136	igt	2	igt	15	8	1	1	2	30	2	936	1	8	10	8	100	0	100	Gana $<%abs(values.netchange)%>	2350	50	3	6	100	2	2	-50	50	3	6	100	2	2	-50
111417	19:39:19	211136	igt	2	igt	17	9	1	1	1	30	2	709	0	8	10	8	100	0	100	Gana $<%abs(values.netchange)%>	2450	50	3	6	100	3	3	-50	50	3	6	100	3	3	-50
111417	19:39:19	211136	igt	2	igt	19	10	1	1	2	30	2	470	0	7	10	8	100	0	100	Gana $<%abs(values.netchange)%>	2550	50	3	6	100	4	4	-50	50	3	6	100	4	4	-50
111417	19:39:19	211136	igt	2	igt	21	11	1	1	2	30	2	1911	0	6	10	8	100	0	100	Gana $<%abs(values.netchange)%>	2650	50	3	6	100	5	5	-50	50	3	6	100	5	5	-50
111417	19:39:19	211136	igt	2	igt	23	12	1	1	1	30	2	656	-1	6	10	8	100	150	-50	Pierde $<%abs(values.netchange)%>	2600	50	3	6	100	6	6	-50	50	3	6	100	6	6	-50
111417	19:39:19	211136	igt	2	igt	25	13	1	1	2	30	2	759	-1	5	10	8	100	0	100	Gana $<%abs(values.netchange)%>	2700	50	3	6	100	7	7	-50	50	3	6	100	7	7	-50
111417	19:39:19	211136	igt	2	igt	27	14	1	1	4	30	2	1934	-1	5	10	7	50	0	50	Gana $<%abs(values.netchange)%>	2750	57,1428571428571387969	4	7	100	7	7	-42,8571428571428612031	57,1428571428571387969	4	7	100	7	7	-42,8571428571428612031
111417	19:39:19	211136	igt	2	igt	29	15	1	1	4	38	1	2193	-1	5	10	7	0	0	0	PASAR	2750	50	4	8	100	7	7	-50	50	4	8	100	7	7	-50
111417	19:39:19	211136	igt	2	igt	31	16	1	1	1	30	2	689	-2	5	10	7	100	0	100	Gana $<%abs(values.netchange)%>	2850	50	4	8	100	8	8	-50	50	4	8	100	8	8	-50
111417	19:39:19	211136	igt	2	igt	33	17	1	1	3	30	2	972	-2	5	9	7	50	0	50	Gana $<%abs(values.netchange)%>	2900	55,5555555555555571345	5	9	100	8	8	-44,4444444444444428655	55,5555555555555571345	5	9	100	8	8	-44,4444444444444428655
111417	19:39:19	211136	igt	2	igt	35	18	1	1	1	30	2	694	-3	5	9	7	100	0	100	Gana $<%abs(values.netchange)%>	3000	55,5555555555555571345	5	9	100	9	9	-44,4444444444444428655	55,5555555555555571345	5	9	100	9	9	-44,4444444444444428655
111417	19:39:19	211136	igt	2	igt	37	19	1	1	3	30	2	626	-3	5	8	7	50	0	50	Gana $<%abs(values.netchange)%>	3050	60	6	10	100	9	9	-40	60	6	10	100	9	9	-40
111417	19:39:19	211136	igt	2	igt	39	20	1	1	2	30	2	662	-3	4	8	7	100	0	100	Gana $<%abs(values.netchange)%>	3150	60	6	10	100	10	10	-40	60	6	10	100	10	10	-40
111417	19:39:19	211136	igt	3	igt	1	21	1	1	4	30	2	2729	-3	4	8	6	50	0	50	Gana $<%abs(values.netchange)%>	3200	100	1	1	0	0	0	100	63,6363636363636331339	7	11	100	10	10	-36,3636363636363668661
111417	19:39:19	211136	igt	3	igt	3	22	1	1	3	30	2	485	-3	4	7	6	50	0	50	Gana $<%abs(values.netchange)%>	3250	100	2	2	0	0	0	100	66,6666666666666571928	8	12	100	10	10	-33,3333333333333428072
111417	19:39:19	211136	igt	3	igt	5	23	1	1	1	30	2	403	-4	4	7	6	100	0	100	Gana $<%abs(values.netchange)%>	3350	100	2	2	100	1	1	0	66,6666666666666571928	8	12	100	11	11	-33,3333333333333428072
111417	19:39:19	211136	igt	3	igt	7	24	1	1	3	30	2	411	-4	4	6	6	50	0	50	Gana $<%abs(values.netchange)%>	3400	100	3	3	100	1	1	0	69,2307692307692263967	9	13	100	11	11	-30,7692307692307736033
111417	19:39:19	211136	igt	3	igt	9	25	1	1	4	30	2	437	-4	4	6	5	50	0	50	Gana $<%abs(values.netchange)%>	3450	100	4	4	100	1	1	0	71,4285714285714306016	10	14	100	11	11	-28,5714285714285693984
111417	19:39:19	211136	igt	3	igt	11	26	1	1	4	30	2	550	-4	4	6	4	50	0	50	Gana $<%abs(values.netchange)%>	3500	100	5	5	100	1	1	0	73,3333333333333285964	11	15	100	11	11	-26,6666666666666714036
111417	19:39:19	211136	igt	3	igt	13	27	1	1	1	30	2	534	-5	4	6	4	100	250	-150	Pierde $<%abs(values.netchange)%>	3350	100	5	5	100	2	2	0	73,3333333333333285964	11	15	100	12	12	-26,6666666666666714036
111417	19:39:19	211136	igt	3	igt	15	28	1	1	2	30	2	762	-5	3	6	4	100	0	100	Gana $<%abs(values.netchange)%>	3450	100	5	5	100	3	3	0	73,3333333333333285964	11	15	100	13	13	-26,6666666666666714036
111417	19:39:19	211136	igt	3	igt	17	29	1	1	1	30	2	644	-6	3	6	4	100	0	100	Gana $<%abs(values.netchange)%>	3550	100	5	5	100	4	4	0	73,3333333333333285964	11	15	100	14	14	-26,6666666666666714036
111417	19:39:19	211136	igt	3	igt	19	30	1	1	2	30	2	324	-6	2	6	4	100	0	100	Gana $<%abs(values.netchange)%>	3650	100	5	5	100	5	5	0	73,3333333333333285964	11	15	100	15	15	-26,6666666666666714036
111417	19:39:19	211136	igt	3	igt	21	31	1	1	3	30	2	441	-6	2	5	4	50	0	50	Gana $<%abs(values.netchange)%>	3700	100	6	6	100	5	5	0	75	12	16	100	15	15	-25
111417	19:39:19	211136	igt	3	igt	23	32	1	1	2	30	2	625	-6	1	5	4	100	0	100	Gana $<%abs(values.netchange)%>	3800	100	6	6	100	6	6	0	75	12	16	100	16	16	-25
111417	19:39:19	211136	igt	3	igt	25	33	1	1	1	30	2	503	-7	1	5	4	100	200	-100	Pierde $<%abs(values.netchange)%>	3700	100	6	6	100	7	7	0	75	12	16	100	17	17	-25
111417	19:39:19	211136	igt	3	igt	27	34	1	1	1	30	2	634	-8	1	5	4	100	0	100	Gana $<%abs(values.netchange)%>	3800	100	6	6	100	8	8	0	75	12	16	100	18	18	-25
111417	19:39:19	211136	igt	3	igt	29	35	1	1	4	30	2	521	-8	1	5	3	50	0	50	Gana $<%abs(values.netchange)%>	3850	100	7	7	100	8	8	0	76,4705882352941159752	13	17	100	18	18	-23,5294117647058840248
111417	19:39:19	211136	igt	3	igt	31	36	1	1	2	30	2	374	-8	0	5	3	100	0	100	Gana $<%abs(values.netchange)%>	3950	100	7	7	100	9	9	0	76,4705882352941159752	13	17	100	19	19	-23,5294117647058840248
111417	19:39:19	211136	igt	3	igt	33	37	1	1	2	30	2	402	-8	-1	5	3	100	0	100	Gana $<%abs(values.netchange)%>	4050	100	7	7	100	10	10	0	76,4705882352941159752	13	17	100	20	20	-23,5294117647058840248
111417	19:39:19	211136	igt	3	igt	35	38	1	1	3	30	2	604	-8	-1	4	3	50	0	50	Gana $<%abs(values.netchange)%>	4100	100	8	8	100	10	10	0	77,7777777777777856727	14	18	100	20	20	-22,2222222222222143273
111417	19:39:19	211136	igt	3	igt	37	39	1	1	3	30	2	402	-8	-1	3	3	50	0	50	Gana $<%abs(values.netchange)%>	4150	100	9	9	100	10	10	0	78,9473684210526300831	15	19	100	20	20	-21,0526315789473699169
111417	19:39:19	211136	igt	3	igt	39	40	1	1	4	30	2	383	-8	-1	3	2	50	0	50	Gana $<%abs(values.netchange)%>	4200	100	10	10	100	10	10	0	80	16	20	100	20	20	-20
111417	19:39:19	211136	igt	4	igt	1	41	1	1	2	30	2	755	-8	-2	3	2	100	0	100	Gana $<%abs(values.netchange)%>	4300	0	0	0	100	1	1	-100	80	16	20	100	21	21	-20
111417	19:39:19	211136	igt	4	igt	3	42	1	1	4	30	2	512	-8	-2	3	1	50	0	50	Gana $<%abs(values.netchange)%>	4350	100	1	1	100	1	1	0	80,9523809523809489974	17	21	100	21	21	-19,0476190476190510026
111417	19:39:19	211136	igt	4	igt	5	43	1	1	1	38	1	1311	-8	-2	3	1	0	0	0	PASAR	4350	100	1	1	50	1	2	50	80,9523809523809489974	17	21	95,4545454545454532536	21	22	-14,5021645021645042561
111417	19:39:19	211136	igt	4	igt	7	44	1	1	3	30	2	365	-8	-2	2	1	50	0	50	Gana $<%abs(values.netchange)%>	4400	100	2	2	50	1	2	50	81,8181818181818272251	18	22	95,4545454545454532536	21	22	-13,6363636363636260285
111417	19:39:19	211136	igt	4	igt	9	45	1	1	2	30	2	352	-8	-3	2	1	100	0	100	Gana $<%abs(values.netchange)%>	4500	100	2	2	66,6666666666666571928	2	3	33,3333333333333428072	81,8181818181818272251	18	22	95,6521739130434838216	22	23	-13,8339920948616565965
111417	19:39:19	211136	igt	4	igt	11	46	1	1	2	30	2	389	-8	-4	2	1	100	0	100	Gana $<%abs(values.netchange)%>	4600	100	2	2	75	3	4	25	81,8181818181818272251	18	22	95,8333333333333428072	23	24	-14,0151515151515155821
111417	19:39:19	211136	igt	4	igt	13	47	1	1	3	30	2	335	-8	-4	1	1	50	0	50	Gana $<%abs(values.netchange)%>	4650	100	3	3	75	3	4	25	82,6086956521739068648	19	23	95,8333333333333428072	23	24	-13,2246376811594359424
111417	19:39:19	211136	igt	4	igt	15	48	1	1	3	30	2	390	-8	-4	0	1	50	0	50	Gana $<%abs(values.netchange)%>	4700	100	4	4	75	3	4	25	83,3333333333333428072	20	24	95,8333333333333428072	23	24	-12,5
111417	19:39:19	211136	igt	4	igt	17	49	1	1	1	30	2	649	-9	-4	0	1	100	350	-250	Pierde $<%abs(values.netchange)%>	4450	100	4	4	80	4	5	20	83,3333333333333428072	20	24	96	24	25	-12,6666666666666571928
111417	19:39:19	211136	igt	4	igt	19	50	1	1	1	38	1	1281	-9	-4	0	1	0	0	0	PASAR	4450	100	4	4	66,6666666666666571928	4	6	33,3333333333333428072	83,3333333333333428072	20	24	92,3076923076923065992	24	26	-8,9743589743589637919
111417	19:39:19	211136	igt	4	igt	21	51	1	1	2	30	2	340	-9	-5	0	1	100	0	100	Gana $<%abs(values.netchange)%>	4550	100	4	4	71,4285714285714306016	5	7	28,5714285714285693984	83,3333333333333428072	20	24	92,5925925925925952242	25	27	-9,259259259259252417
111417	19:39:19	211136	igt	4	igt	23	52	1	1	1	30	2	398	-10	-5	0	1	100	300	-200	Pierde $<%abs(values.netchange)%>	4350	100	4	4	75	6	8	25	83,3333333333333428072	20	24	92,8571428571428612031	26	28	-9,5238095238095183959
111417	19:39:19	211136	igt	4	igt	25	53	1	1	4	30	2	755	-10	-5	0	0	50	0	50	Gana $<%abs(values.netchange)%>	4400	100	5	5	75	6	8	25	84	21	25	92,8571428571428612031	26	28	-8,8571428571428612031
111417	19:39:19	211136	igt	4	igt	27	54	1	1	4	30	2	413	-10	-5	0	-1	50	0	50	Gana $<%abs(values.netchange)%>	4450	100	6	6	75	6	8	25	84,6153846153846131983	22	26	92,8571428571428612031	26	28	-8,2417582417582480048
111417	19:39:19	211136	igt	4	igt	29	55	1	1	4	30	2	359	-10	-5	0	-2	50	0	50	Gana $<%abs(values.netchange)%>	4500	100	7	7	75	6	8	25	85,1851851851851904485	23	27	92,8571428571428612031	26	28	-7,6719576719576707546
111417	19:39:19	211136	igt	4	igt	31	56	1	1	4	30	2	354	-10	-5	0	-3	50	0	50	Gana $<%abs(values.netchange)%>	4550	100	8	8	75	6	8	25	85,7142857142857081953	24	28	92,8571428571428612031	26	28	-7,1428571428571530078
111417	19:39:19	211136	igt	4	igt	33	57	1	1	2	30	2	415	-10	-6	0	-3	100	0	100	Gana $<%abs(values.netchange)%>	4650	100	8	8	77,7777777777777856727	7	9	22,2222222222222143273	85,7142857142857081953	24	28	93,1034482758620640652	27	29	-7,3891625615763558699
111417	19:39:19	211136	igt	4	igt	35	58	1	1	3	30	2	368	-10	-6	-1	-3	50	75	-25	Pierde $<%abs(values.netchange)%>	4625	100	9	9	77,7777777777777856727	7	9	22,2222222222222143273	86,2068965517241281304	25	29	93,1034482758620640652	27	29	-6,8965517241379359348
111417	19:39:19	211136	igt	4	igt	37	59	1	1	3	30	2	1502	-10	-6	-2	-3	50	75	-25	Pierde $<%abs(values.netchange)%>	4600	100	10	10	77,7777777777777856727	7	9	22,2222222222222143273	86,6666666666666714036	26	30	93,1034482758620640652	27	29	-6,4367816091953926616
111417	19:39:19	211136	igt	4	igt	39	60	1	1	1	30	2	878	-11	-6	-2	-3	100	350	-250	Pierde $<%abs(values.netchange)%>	4350	100	10	10	80	8	10	20	86,6666666666666714036	26	30	93,3333333333333285964	28	30	-6,6666666666666571928
111417	19:39:19	211136	igt	5	igt	1	61	1	1	3	38	1	1157	-11	-6	-2	-3	0	0	0	PASAR	4350	0	0	1	0	0	0	0	83,8709677419354875383	26	31	93,3333333333333285964	28	30	-9,4623655913978410581
111417	19:39:19	211136	igt	5	igt	3	62	1	1	4	30	2	571	-11	-6	-2	-4	50	0	50	Gana $<%abs(values.netchange)%>	4400	50	1	2	0	0	0	50	84,375	27	32	93,3333333333333285964	28	30	-8,9583333333333285964
111417	19:39:19	211136	igt	5	igt	5	63	1	1	3	38	1	679	-11	-6	-2	-4	0	0	0	PASAR	4400	33,3333333333333285964	1	3	0	0	0	33,3333333333333285964	81,8181818181818272251	27	33	93,3333333333333285964	28	30	-11,5151515151515013713
111417	19:39:19	211136	igt	5	igt	7	64	1	1	4	30	2	610	-11	-6	-2	-5	50	0	50	Gana $<%abs(values.netchange)%>	4450	50	2	4	0	0	0	50	82,352941176470579876	28	34	93,3333333333333285964	28	30	-10,9803921568627487204
111417	19:39:19	211136	igt	5	igt	9	65	1	1	2	30	2	606	-11	-7	-2	-5	100	0	100	Gana $<%abs(values.netchange)%>	4550	50	2	4	100	1	1	-50	82,352941176470579876	28	34	93,5483870967741921731	29	31	-11,1954459203036122972
111417	19:39:19	211136	igt	5	igt	11	66	1	1	2	30	2	577	-11	-8	-2	-5	100	0	100	Gana $<%abs(values.netchange)%>	4650	50	2	4	100	2	2	-50	82,352941176470579876	28	34	93,75	30	32	-11,397058823529420124
111417	19:39:19	211136	igt	5	igt	13	67	1	1	1	38	1	713	-11	-8	-2	-5	0	0	0	PASAR	4650	50	2	4	66,6666666666666571928	2	3	-16,6666666666666571928	82,352941176470579876	28	34	90,9090909090909065071	30	33	-8,5561497326203266311
111417	19:39:19	211136	igt	5	igt	15	68	1	1	3	38	1	2482	-11	-8	-2	-5	0	0	0	PASAR	4650	40	2	5	66,6666666666666571928	2	3	-26,6666666666666571928	80	28	35	90,9090909090909065071	30	33	-10,9090909090909065071
111417	19:39:19	211136	igt	5	igt	17	69	1	1	2	30	2	504	-11	-9	-2	-5	100	0	100	Gana $<%abs(values.netchange)%>	4750	40	2	5	75	3	4	-35	80	28	35	91,176470588235289938	31	34	-11,176470588235289938
111417	19:39:19	211136	igt	5	igt	19	70	1	1	4	30	2	605	-11	-9	-2	-6	50	0	50	Gana $<%abs(values.netchange)%>	4800	50	3	6	75	3	4	-25	80,5555555555555571345	29	36	91,176470588235289938	31	34	-10,6209150326797328034
111417	19:39:19	211136	igt	5	igt	21	71	1	1	3	38	1	643	-11	-9	-2	-6	0	0	0	PASAR	4800	42,8571428571428540977	3	7	75	3	4	-32,1428571428571459023	78,3783783783783718491	29	37	91,176470588235289938	31	34	-12,7980922098569180889
111417	19:39:19	211136	igt	5	igt	23	72	1	1	1	38	1	687	-11	-9	-2	-6	0	0	0	PASAR	4800	42,8571428571428540977	3	7	60	3	5	-17,1428571428571459023	78,3783783783783718491	29	37	88,5714285714285693984	31	35	-10,1930501930501975494
111417	19:39:19	211136	igt	5	igt	25	73	1	1	1	38	1	709	-11	-9	-2	-6	0	0	0	PASAR	4800	42,8571428571428540977	3	7	50	3	6	-7,1428571428571459023	78,3783783783783718491	29	37	86,1111111111111142691	31	36	-7,73273273273274242
111417	19:39:19	211136	igt	5	igt	27	74	1	1	2	30	2	465	-11	-10	-2	-6	100	1250	-1150	Pierde $<%abs(values.netchange)%>	3650	42,8571428571428540977	3	7	57,1428571428571387969	4	7	-14,2857142857142846992	78,3783783783783718491	29	37	86,486486486486484182	32	37	-8,108108108108112333
111417	19:39:19	211136	igt	5	igt	29	75	1	1	4	30	2	799	-11	-10	-2	-7	50	250	-200	Pierde $<%abs(values.netchange)%>	3450	50	4	8	57,1428571428571387969	4	7	-7,1428571428571387969	78,9473684210526300831	30	38	86,486486486486484182	32	37	-7,539118065433854099
111417	19:39:19	211136	igt	5	igt	31	76	1	1	2	30	2	542	-11	-11	-2	-7	100	0	100	Gana $<%abs(values.netchange)%>	3550	50	4	8	62,5	5	8	-12,5	78,9473684210526300831	30	38	86,8421052631579044601	33	38	-7,894736842105274377
111417	19:39:19	211136	igt	5	igt	33	77	1	1	1	30	2	440	-12	-11	-2	-7	100	200	-100	Pierde $<%abs(values.netchange)%>	3450	50	4	8	66,6666666666666571928	6	9	-16,6666666666666571928	78,9473684210526300831	30	38	87,1794871794871824022	34	39	-8,2321187584345523192
111417	19:39:19	211136	igt	5	igt	35	78	1	1	3	30	2	384	-12	-11	-3	-7	50	0	50	Gana $<%abs(values.netchange)%>	3500	55,5555555555555571345	5	9	66,6666666666666571928	6	9	-11,1111111111111000582	79,4871794871794890014	31	39	87,1794871794871824022	34	39	-7,6923076923076934008
111417	19:39:19	211136	igt	5	igt	37	79	1	1	4	30	2	378	-12	-11	-3	-8	50	0	50	Gana $<%abs(values.netchange)%>	3550	60	6	10	66,6666666666666571928	6	9	-6,6666666666666571928	80	32	40	87,1794871794871824022	34	39	-7,1794871794871824022
111417	19:39:19	211136	igt	5	igt	39	80	1	1	1	30	2	414	-13	-11	-3	-8	100	0	100	Gana $<%abs(values.netchange)%>	3650	60	6	10	70	7	10	-10	80	32	40	87,5	35	40	-7,5
111417	19:39:19	211136	igt	6	igt	1	81	1	1	1	0	1	4000	-13	-11	-3	-8	0	0	0	PASAR	3650	0	0	0	0	0	1	0	80	32	40	85,3658536585365794735	35	41	-5,3658536585365794735
111417	19:39:19	211136	igt	6	igt	3	82	1	1	4	38	1	936	-13	-11	-3	-8	0	0	0	PASAR	3650	0	0	1	0	0	1	0	78,0487804878048763157	32	41	85,3658536585365794735	35	41	-7,3170731707317031578
111417	19:39:19	211136	igt	6	igt	5	83	1	1	1	30	2	330	-14	-11	-3	-8	100	0	100	Gana $<%abs(values.netchange)%>	3750	0	0	1	50	1	2	-50	78,0487804878048763157	32	41	85,7142857142857081953	36	42	-7,6655052264808318796
111417	19:39:19	211136	igt	6	igt	7	84	1	1	2	30	2	388	-14	-12	-3	-8	100	0	100	Gana $<%abs(values.netchange)%>	3850	0	0	1	66,6666666666666571928	2	3	-66,6666666666666571928	78,0487804878048763157	32	41	86,0465116279069803795	37	43	-7,9977311401021040638
111417	19:39:19	211136	igt	6	igt	9	85	1	1	4	30	2	418	-14	-12	-3	-9	50	0	50	Gana $<%abs(values.netchange)%>	3900	50	1	2	66,6666666666666571928	2	3	-16,6666666666666571928	78,5714285714285693984	33	42	86,0465116279069803795	37	43	-7,4750830564784109811
111417	19:39:19	211136	igt	6	igt	11	86	1	1	2	30	2	351	-14	-13	-3	-9	100	0	100	Gana $<%abs(values.netchange)%>	4000	50	1	2	75	3	4	-25	78,5714285714285693984	33	42	86,3636363636363597607	38	44	-7,7922077922077903622
111417	19:39:19	211136	igt	6	igt	13	87	1	1	4	38	1	670	-14	-13	-3	-9	0	0	0	PASAR	4000	33,3333333333333285964	1	3	75	3	4	-41,6666666666666714036	76,7441860465116292289	33	43	86,3636363636363597607	38	44	-9,6194503171247305318
111417	19:39:19	211136	igt	6	igt	15	88	1	1	1	30	2	435	-15	-13	-3	-9	100	0	100	Gana $<%abs(values.netchange)%>	4100	33,3333333333333285964	1	3	80	4	5	-46,6666666666666714036	76,7441860465116292289	33	43	86,6666666666666714036	39	45	-9,9224806201550421747
111417	19:39:19	211136	igt	6	igt	17	89	1	1	4	38	1	456	-15	-13	-3	-9	0	0	0	PASAR	4100	25	1	4	80	4	5	-55	75	33	44	86,6666666666666714036	39	45	-11,6666666666666714036
111417	19:39:19	211136	igt	6	igt	19	90	1	1	3	30	2	446	-15	-13	-4	-9	50	0	50	Gana $<%abs(values.netchange)%>	4150	40	2	5	80	4	5	-40	75,5555555555555571345	34	45	86,6666666666666714036	39	45	-11,1111111111111142691
111417	19:39:19	211136	igt	6	igt	21	91	1	1	4	38	1	459	-15	-13	-4	-9	0	0	0	PASAR	4150	33,3333333333333285964	2	6	80	4	5	-46,6666666666666714036	73,9130434782608602973	34	46	86,6666666666666714036	39	45	-12,7536231884058111063
111417	19:39:19	211136	igt	6	igt	23	92	1	1	2	30	2	439	-15	-14	-4	-9	100	0	100	Gana $<%abs(values.netchange)%>	4250	33,3333333333333285964	2	6	83,3333333333333428072	5	6	-50,0000000000000142109	73,9130434782608602973	34	46	86,9565217391304372541	40	46	-13,0434782608695769568
111417	19:39:19	211136	igt	6	igt	25	93	1	1	1	30	2	861	-16	-14	-4	-9	100	0	100	Gana $<%abs(values.netchange)%>	4350	33,3333333333333285964	2	6	85,7142857142857081953	6	7	-52,380952380952379599	73,9130434782608602973	34	46	87,2340425531915002466	41	47	-13,3209990749306399493
111417	19:39:19	211136	igt	6	igt	27	94	1	1	3	38	1	329	-16	-14	-4	-9	0	0	0	PASAR	4350	28,5714285714285693984	2	7	85,7142857142857081953	6	7	-57,1428571428571387969	72,3404255319149029901	34	47	87,2340425531915002466	41	47	-14,8936170212765972565
111417	19:39:19	211136	igt	6	igt	29	95	1	1	3	30	2	342	-16	-14	-5	-9	50	0	50	Gana $<%abs(values.netchange)%>	4400	37,5	3	8	85,7142857142857081953	6	7	-48,2142857142857081953	72,9166666666666571928	35	48	87,2340425531915002466	41	47	-14,3173758865248430538
111417	19:39:19	211136	igt	6	igt	31	96	1	1	3	30	2	446	-16	-14	-6	-9	50	50	0	No gana ni pierde dinero	4400	44,4444444444444428655	4	9	85,7142857142857081953	6	7	-41,2698412698412653299	73,4693877551020477767	36	49	87,2340425531915002466	41	47	-13,7646547980894524699
111417	19:39:19	211136	igt	6	igt	33	97	1	1	2	30	2	545	-16	-15	-6	-9	100	1250	-1150	Pierde $<%abs(values.netchange)%>	3250	44,4444444444444428655	4	9	87,5	7	8	-43,0555555555555571345	73,4693877551020477767	36	49	87,5	42	48	-14,0306122448979522233
111417	19:39:19	211136	igt	6	igt	35	98	1	1	1	30	2	532	-17	-15	-6	-9	100	300	-200	Pierde $<%abs(values.netchange)%>	3050	44,4444444444444428655	4	9	88,8888888888888857309	8	9	-44,4444444444444428655	73,4693877551020477767	36	49	87,7551020408163253705	43	49	-14,2857142857142775938
111417	19:39:19	211136	igt	6	igt	37	99	1	1	3	38	1	405	-17	-15	-6	-9	0	0	0	PASAR	3050	40	4	10	88,8888888888888857309	8	9	-48,8888888888888857309	72	36	50	87,7551020408163253705	43	49	-15,7551020408163253705
111417	19:39:19	211136	igt	6	igt	39	100	1	1	2	30	2	376	-17	-16	-6	-9	100	0	100	Gana $<%abs(values.netchange)%>	3150	40	4	10	90	9	10	-50	72	36	50	88	44	50	-16
111417	19:39:19	211136	igt	7	igt	1	101	1	1	2	38	1	1051	-17	-16	-6	-9	0	0	0	PASAR	3150	0	0	0	0	0	1	0	72	36	50	86,2745098039215747576	44	51	-14,2745098039215747576
111417	19:39:19	211136	igt	7	igt	3	102	1	1	1	30	2	475	-18	-16	-6	-9	100	150	-50	Pierde $<%abs(values.netchange)%>	3100	0	0	0	50	1	2	-50	72	36	50	86,5384615384615472067	45	52	-14,5384615384615472067
111417	19:39:19	211136	igt	7	igt	5	103	1	1	3	38	1	398	-18	-16	-6	-9	0	0	0	PASAR	3100	0	0	1	50	1	2	-50	70,5882352941176520744	36	51	86,5384615384615472067	45	52	-15,9502262443438951323
111417	19:39:19	211136	igt	7	igt	7	104	1	1	3	30	2	321	-18	-16	-7	-9	50	0	50	Gana $<%abs(values.netchange)%>	3150	50	1	2	50	1	2	0	71,153846153846160405	37	52	86,5384615384615472067	45	52	-15,3846153846153868017
111417	19:39:19	211136	igt	7	igt	9	105	1	1	2	30	2	368	-18	-17	-7	-9	100	0	100	Gana $<%abs(values.netchange)%>	3250	50	1	2	66,6666666666666571928	2	3	-16,6666666666666571928	71,153846153846160405	37	52	86,7924528301886795134	46	53	-15,6386066763425191084
111417	19:39:19	211136	igt	7	igt	11	106	1	1	1	38	1	645	-18	-17	-7	-9	0	0	0	PASAR	3250	50	1	2	50	2	4	0	71,153846153846160405	37	52	85,1851851851851904485	46	54	-14,0313390313390300435
111417	19:39:19	211136	igt	7	igt	13	107	1	1	3	30	2	356	-18	-17	-8	-9	50	75	-25	Pierde $<%abs(values.netchange)%>	3225	66,6666666666666571928	2	3	50	2	4	16,6666666666666571928	71,6981132075471663256	38	53	85,1851851851851904485	46	54	-13,4870719776380241228
111417	19:39:19	211136	igt	7	igt	15	108	1	1	4	30	2	349	-18	-17	-8	-10	50	0	50	Gana $<%abs(values.netchange)%>	3275	75	3	4	50	2	4	25	72,2222222222222143273	39	54	85,1851851851851904485	46	54	-12,9629629629629761212
111417	19:39:19	211136	igt	7	igt	17	109	1	1	1	30	2	582	-19	-17	-8	-10	100	0	100	Gana $<%abs(values.netchange)%>	3375	75	3	4	60	3	5	15	72,2222222222222143273	39	54	85,4545454545454532536	47	55	-13,2323232323232389263
111417	19:39:19	211136	igt	7	igt	19	110	1	1	1	30	2	1540	-20	-17	-8	-10	100	250	-150	Pierde $<%abs(values.netchange)%>	3225	75	3	4	66,6666666666666571928	4	6	8,3333333333333428072	72,2222222222222143273	39	54	85,7142857142857081953	48	56	-13,492063492063493868
111417	19:39:19	211136	igt	7	igt	21	111	1	1	4	38	1	460	-20	-17	-8	-10	0	0	0	PASAR	3225	60	3	5	66,6666666666666571928	4	6	-6,6666666666666571928	70,9090909090909065071	39	55	85,7142857142857081953	48	56	-14,8051948051948016882
111417	19:39:19	211136	igt	7	igt	23	112	1	1	2	30	2	357	-20	-18	-8	-10	100	0	100	Gana $<%abs(values.netchange)%>	3325	60	3	5	71,4285714285714306016	5	7	-11,4285714285714306016	70,9090909090909065071	39	55	85,9649122807017533887	49	57	-15,0558213716108468816
111417	19:39:19	211136	igt	7	igt	25	113	1	1	4	30	2	1643	-20	-18	-8	-11	50	0	50	Gana $<%abs(values.netchange)%>	3375	66,6666666666666571928	4	6	71,4285714285714306016	5	7	-4,7619047619047734088	71,4285714285714306016	40	56	85,9649122807017533887	49	57	-14,5363408521303227872
111417	19:39:19	211136	igt	7	igt	27	114	1	1	2	30	2	1503	-20	-19	-8	-11	100	0	100	Gana $<%abs(values.netchange)%>	3475	66,6666666666666571928	4	6	75	6	8	-8,3333333333333428072	71,4285714285714306016	40	56	86,2068965517241281304	50	58	-14,7783251231526975289
111417	19:39:19	211136	igt	7	igt	29	115	1	1	3	30	2	957	-20	-19	-9	-11	50	0	50	Gana $<%abs(values.netchange)%>	3525	71,4285714285714306016	5	7	75	6	8	-3,5714285714285693984	71,9298245614035067774	41	57	86,2068965517241281304	50	58	-14,277071990320621353
111417	19:39:19	211136	igt	7	igt	31	116	1	1	3	38	1	991	-20	-19	-9	-11	0	0	0	PASAR	3525	62,5	5	8	75	6	8	-12,5	70,6896551724137935935	41	58	86,2068965517241281304	50	58	-15,517241379310334537
111417	19:39:19	211136	igt	7	igt	33	117	1	1	4	30	2	372	-20	-19	-9	-12	50	0	50	Gana $<%abs(values.netchange)%>	3575	66,6666666666666571928	6	9	75	6	8	-8,3333333333333428072	71,1864406779661038627	42	59	86,2068965517241281304	50	58	-15,0204558737580242678
111417	19:39:19	211136	igt	7	igt	35	118	1	1	2	30	2	433	-20	-20	-9	-12	100	0	100	Gana $<%abs(values.netchange)%>	3675	66,6666666666666571928	6	9	77,7777777777777856727	7	9	-11,1111111111111284799	71,1864406779661038627	42	59	86,4406779661017026228	51	59	-15,2542372881355987602
111417	19:39:19	211136	igt	7	igt	37	119	1	1	4	30	2	535	-20	-20	-9	-13	50	0	50	Gana $<%abs(values.netchange)%>	3725	70	7	10	77,7777777777777856727	7	9	-7,7777777777777856727	71,6666666666666714036	43	60	86,4406779661017026228	51	59	-14,7740112994350312192
111417	19:39:19	211136	igt	7	igt	39	120	1	1	1	30	2	406	-21	-20	-9	-13	100	350	-250	Pierde $<%abs(values.netchange)%>	3475	70	7	10	80	8	10	-10	71,6666666666666714036	43	60	86,6666666666666714036	52	60	-15
