date	time	subject	blockcode	blocknum	trialcode	trialnum	values.cardoffered	values.groupnumber	values.defaultresponse	values.targetdeck	response	values.response	latency	values.forcedwins1	values.forcedwins2	values.forcedwins3	values.forcedwins4	values.gain	values.loss	values.netchange	expressions.feedback	values.currenttotal	expressions.percent_goodplay_block	values.number_goodplay_block	values.total_gooddeck_block	expressions.percent_badplay_block	values.number_badplay_block	values.total_baddeck_block	expressions.netscore_block	expressions.percent_goodplay	values.number_goodplay	values.total_gooddeck	expressions.percent_badplay	values.number_badplay	values.total_baddeck	expressions.netscore_total
093018	12:14:31	1	igt	2	igt	1	1	2	1	2	pass	1	50	0	0	0	0	0	0	0	PASAR	2000	0	0	0	0	0	1	0	0	0	0	0	0	1	0
093018	12:14:31	1	igt	2	igt	3	2	2	1	1	play	2	41	-1	0	0	0	100	0	100	Gana $<%abs(values.netchange)%>	2100	0	0	0	50	1	2	-50	0	0	0	50	1	2	-50
093018	12:14:31	1	igt	2	igt	5	3	2	1	3	pass	1	50	-1	0	0	0	0	0	0	PASAR	2100	0	0	1	50	1	2	-50	0	0	1	50	1	2	-50
093018	12:14:31	1	igt	2	igt	7	4	2	1	3	pass	1	61	-1	0	0	0	0	0	0	PASAR	2100	0	0	2	50	1	2	-50	0	0	2	50	1	2	-50
093018	12:14:31	1	igt	2	igt	9	5	2	1	4	play	2	24	-1	0	0	-1	50	0	50	Gana $<%abs(values.netchange)%>	2150	33,3333333333333285964	1	3	50	1	2	-16,6666666666666714036	33,3333333333333285964	1	3	50	1	2	-16,6666666666666714036
093018	12:14:31	1	igt	2	igt	11	6	2	1	1	play	2	36	-2	0	0	-1	100	350	-250	Pierde $<%abs(values.netchange)%>	1900	33,3333333333333285964	1	3	66,6666666666666571928	2	3	-33,3333333333333285964	33,3333333333333285964	1	3	66,6666666666666571928	2	3	-33,3333333333333285964
093018	12:14:31	1	igt	2	igt	13	7	2	1	4	pass	1	60	-2	0	0	-1	0	0	0	PASAR	1900	25	1	4	66,6666666666666571928	2	3	-41,6666666666666571928	25	1	4	66,6666666666666571928	2	3	-41,6666666666666571928
093018	12:14:31	1	igt	2	igt	15	8	2	1	4	pass	1	32	-2	0	0	-1	0	0	0	PASAR	1900	20	1	5	66,6666666666666571928	2	3	-46,6666666666666571928	20	1	5	66,6666666666666571928	2	3	-46,6666666666666571928
093018	12:14:31	1	igt	2	igt	17	9	2	1	2	pass	1	38	-2	0	0	-1	0	0	0	PASAR	1900	20	1	5	50	2	4	-30	20	1	5	50	2	4	-30
093018	12:14:31	1	igt	2	igt	19	10	2	1	3	play	2	65	-2	0	-1	-1	50	0	50	Gana $<%abs(values.netchange)%>	1950	33,3333333333333285964	2	6	50	2	4	-16,6666666666666714036	33,3333333333333285964	2	6	50	2	4	-16,6666666666666714036
093018	12:14:31	1	igt	2	igt	21	11	2	1	2	play	2	47	-2	-1	-1	-1	100	0	100	Gana $<%abs(values.netchange)%>	2050	33,3333333333333285964	2	6	60	3	5	-26,6666666666666714036	33,3333333333333285964	2	6	60	3	5	-26,6666666666666714036
093018	12:14:31	1	igt	2	igt	23	12	2	1	4	play	2	28	-2	-1	-1	-2	50	0	50	Gana $<%abs(values.netchange)%>	2100	42,8571428571428540977	3	7	60	3	5	-17,1428571428571459023	42,8571428571428540977	3	7	60	3	5	-17,1428571428571459023
093018	12:14:31	1	igt	2	igt	25	13	2	1	1	pass	1	45	-2	-1	-1	-2	0	0	0	PASAR	2100	42,8571428571428540977	3	7	50	3	6	-7,1428571428571459023	42,8571428571428540977	3	7	50	3	6	-7,1428571428571459023
093018	12:14:31	1	igt	2	igt	27	14	2	1	3	pass	1	21	-2	-1	-1	-2	0	0	0	PASAR	2100	37,5	3	8	50	3	6	-12,5	37,5	3	8	50	3	6	-12,5
093018	12:14:31	1	igt	2	igt	29	15	2	1	1	pass	1	49	-2	-1	-1	-2	0	0	0	PASAR	2100	37,5	3	8	42,8571428571428540977	3	7	-5,3571428571428540977	37,5	3	8	42,8571428571428540977	3	7	-5,3571428571428540977
093018	12:14:31	1	igt	2	igt	31	16	2	1	4	pass	1	63	-2	-1	-1	-2	0	0	0	PASAR	2100	33,3333333333333285964	3	9	42,8571428571428540977	3	7	-9,5238095238095255013	33,3333333333333285964	3	9	42,8571428571428540977	3	7	-9,5238095238095255013
093018	12:14:31	1	igt	2	igt	33	17	2	1	3	pass	1	47	-2	-1	-1	-2	0	0	0	PASAR	2100	30	3	10	42,8571428571428540977	3	7	-12,8571428571428540977	30	3	10	42,8571428571428540977	3	7	-12,8571428571428540977
093018	12:14:31	1	igt	2	igt	35	18	2	1	2	pass	1	32	-2	-1	-1	-2	0	0	0	PASAR	2100	30	3	10	37,5	3	8	-7,5	30	3	10	37,5	3	8	-7,5
093018	12:14:31	1	igt	2	igt	37	19	2	1	4	pass	1	25	-2	-1	-1	-2	0	0	0	PASAR	2100	27,2727272727272698205	3	11	37,5	3	8	-10,2272727272727301795	27,2727272727272698205	3	11	37,5	3	8	-10,2272727272727301795
093018	12:14:31	1	igt	2	igt	39	20	2	1	1	play	2	68	-3	-1	-1	-2	100	0	100	Gana $<%abs(values.netchange)%>	2200	27,2727272727272698205	3	11	44,4444444444444428655	4	9	-17,171717171717173045	27,2727272727272698205	3	11	44,4444444444444428655	4	9	-17,171717171717173045
093018	12:14:31	1	igt	2	igt	41	21	2	1	1	play	2	27	-4	-1	-1	-2	100	250	-150	Pierde $<%abs(values.netchange)%>	2050	27,2727272727272698205	3	11	50	5	10	-22,7272727272727301795	27,2727272727272698205	3	11	50	5	10	-22,7272727272727301795
093018	12:14:31	1	igt	2	igt	43	22	2	1	3	play	2	12	-4	-1	-2	-2	50	0	50	Gana $<%abs(values.netchange)%>	2100	33,3333333333333285964	4	12	50	5	10	-16,6666666666666714036	33,3333333333333285964	4	12	50	5	10	-16,6666666666666714036
093018	12:14:31	1	igt	2	igt	45	23	2	1	2	pass	1	45	-4	-1	-2	-2	0	0	0	PASAR	2100	33,3333333333333285964	4	12	45,4545454545454532536	5	11	-12,1212121212121246572	33,3333333333333285964	4	12	45,4545454545454532536	5	11	-12,1212121212121246572
093018	12:14:31	1	igt	2	igt	47	24	2	1	2	pass	1	53	-4	-1	-2	-2	0	0	0	PASAR	2100	33,3333333333333285964	4	12	41,6666666666666714036	5	12	-8,3333333333333428072	33,3333333333333285964	4	12	41,6666666666666714036	5	12	-8,3333333333333428072
