date	time	subject	blockcode	blocknum	trialcode	trialnum	values.cardoffered	values.groupnumber	values.defaultresponse	values.targetdeck	response	values.response	latency	values.forcedwins1	values.forcedwins2	values.forcedwins3	values.forcedwins4	values.gain	values.loss	values.netchange	expressions.feedback	values.currenttotal	expressions.percent_goodplay_block	values.number_goodplay_block	values.total_gooddeck_block	expressions.percent_badplay_block	values.number_badplay_block	values.total_baddeck_block	expressions.netscore_block	expressions.percent_goodplay	values.number_goodplay	values.total_gooddeck	expressions.percent_badplay	values.number_badplay	values.total_baddeck	expressions.netscore_total
093018	12:48:16	1	igt	2	igt	1	1	1	1	1	play	2	50	-1	0	0	0	100	250	-150	Pierde $<%abs(values.netchange)%>	1850	0	0	0	100	1	1	-100	0	0	0	100	1	1	-100
093018	12:48:16	1	igt	2	igt	3	2	1	1	4	pass	1	37	-1	0	0	0	0	0	0	PASAR	1850	0	0	1	100	1	1	-100	0	0	1	100	1	1	-100
093018	12:48:16	1	igt	2	igt	5	3	1	1	4	pass	1	51	-1	0	0	0	0	0	0	PASAR	1850	0	0	2	100	1	1	-100	0	0	2	100	1	1	-100
093018	12:48:16	1	igt	2	igt	7	4	1	1	4	play	2	51	-1	0	0	-1	50	0	50	Gana $<%abs(values.netchange)%>	1900	33,3333333333333285964	1	3	100	1	1	-66,6666666666666714036	33,3333333333333285964	1	3	100	1	1	-66,6666666666666714036
093018	12:48:16	1	igt	2	igt	9	5	1	1	1	play	2	31	-2	0	0	-1	100	0	100	Gana $<%abs(values.netchange)%>	2000	33,3333333333333285964	1	3	100	2	2	-66,6666666666666714036	33,3333333333333285964	1	3	100	2	2	-66,6666666666666714036
093018	12:48:16	1	igt	2	igt	11	6	1	1	3	pass	1	20	-2	0	0	-1	0	0	0	PASAR	2000	25	1	4	100	2	2	-75	25	1	4	100	2	2	-75
093018	12:48:16	1	igt	2	igt	13	7	1	1	3	play	2	33	-2	0	-1	-1	50	0	50	Gana $<%abs(values.netchange)%>	2050	40	2	5	100	2	2	-60	40	2	5	100	2	2	-60
093018	12:48:16	1	igt	2	igt	15	8	1	1	4	play	2	45	-2	0	-1	-2	50	0	50	Gana $<%abs(values.netchange)%>	2100	50	3	6	100	2	2	-50	50	3	6	100	2	2	-50
093018	12:48:16	1	igt	2	igt	17	9	1	1	3	play	2	53	-2	0	-2	-2	50	50	0	No gana ni pierde dinero	2100	57,1428571428571387969	4	7	100	2	2	-42,8571428571428612031	57,1428571428571387969	4	7	100	2	2	-42,8571428571428612031
093018	12:48:16	1	igt	2	igt	19	10	1	1	1	play	2	39	-3	0	-2	-2	100	200	-100	Pierde $<%abs(values.netchange)%>	2000	57,1428571428571387969	4	7	100	3	3	-42,8571428571428612031	57,1428571428571387969	4	7	100	3	3	-42,8571428571428612031
093018	12:48:16	1	igt	2	igt	21	11	1	1	3	play	2	40	-3	0	-3	-2	50	75	-25	Pierde $<%abs(values.netchange)%>	1975	62,5	5	8	100	3	3	-37,5	62,5	5	8	100	3	3	-37,5
093018	12:48:16	1	igt	2	igt	23	12	1	1	2	play	2	54	-3	-1	-3	-2	100	0	100	Gana $<%abs(values.netchange)%>	2075	62,5	5	8	100	4	4	-37,5	62,5	5	8	100	4	4	-37,5
093018	12:48:16	1	igt	2	igt	25	13	1	1	4	play	2	57	-3	-1	-3	-3	50	0	50	Gana $<%abs(values.netchange)%>	2125	66,6666666666666571928	6	9	100	4	4	-33,3333333333333428072	66,6666666666666571928	6	9	100	4	4	-33,3333333333333428072
093018	12:48:16	1	igt	2	igt	27	14	1	1	2	play	2	39	-3	-2	-3	-3	100	1250	-1150	Pierde $<%abs(values.netchange)%>	975	66,6666666666666571928	6	9	100	5	5	-33,3333333333333428072	66,6666666666666571928	6	9	100	5	5	-33,3333333333333428072
093018	12:48:16	1	igt	2	igt	29	15	1	1	3	pass	1	47	-3	-2	-3	-3	0	0	0	PASAR	975	60	6	10	100	5	5	-40	60	6	10	100	5	5	-40
093018	12:48:16	1	igt	2	igt	31	16	1	1	1	play	2	55	-4	-2	-3	-3	100	150	-50	Pierde $<%abs(values.netchange)%>	925	60	6	10	100	6	6	-40	60	6	10	100	6	6	-40
093018	12:48:16	1	igt	2	igt	33	17	1	1	2	play	2	37	-4	-3	-3	-3	100	0	100	Gana $<%abs(values.netchange)%>	1025	60	6	10	100	7	7	-40	60	6	10	100	7	7	-40
093018	12:48:16	1	igt	2	igt	35	18	1	1	4	play	2	54	-4	-3	-3	-4	50	250	-200	Pierde $<%abs(values.netchange)%>	825	63,6363636363636331339	7	11	100	7	7	-36,3636363636363668661	63,6363636363636331339	7	11	100	7	7	-36,3636363636363668661
093018	12:48:16	1	igt	2	igt	37	19	1	1	2	play	2	61	-4	-4	-3	-4	100	0	100	Gana $<%abs(values.netchange)%>	925	63,6363636363636331339	7	11	100	8	8	-36,3636363636363668661	63,6363636363636331339	7	11	100	8	8	-36,3636363636363668661
093018	12:48:16	1	igt	2	igt	39	20	1	1	3	play	2	30	-4	-4	-4	-4	50	0	50	Gana $<%abs(values.netchange)%>	975	66,6666666666666571928	8	12	100	8	8	-33,3333333333333428072	66,6666666666666571928	8	12	100	8	8	-33,3333333333333428072
093018	12:48:16	1	igt	2	igt	41	21	1	1	1	pass	1	42	-4	-4	-4	-4	0	0	0	PASAR	975	66,6666666666666571928	8	12	88,8888888888888857309	8	9	-22,2222222222222285382	66,6666666666666571928	8	12	88,8888888888888857309	8	9	-22,2222222222222285382
093018	12:48:16	1	igt	2	igt	43	22	1	1	2	pass	1	43	-4	-4	-4	-4	0	0	0	PASAR	975	66,6666666666666571928	8	12	80	8	10	-13,3333333333333428072	66,6666666666666571928	8	12	80	8	10	-13,3333333333333428072
093018	12:48:16	1	igt	2	igt	45	23	1	1	2	pass	1	44	-4	-4	-4	-4	0	0	0	PASAR	975	66,6666666666666571928	8	12	72,7272727272727337322	8	11	-6,0606060606060765394	66,6666666666666571928	8	12	72,7272727272727337322	8	11	-6,0606060606060765394
093018	12:48:16	1	igt	2	igt	47	24	1	1	1	play	2	30	-5	-4	-4	-4	100	0	100	Gana $<%abs(values.netchange)%>	1075	66,6666666666666571928	8	12	75	9	12	-8,3333333333333428072	66,6666666666666571928	8	12	75	9	12	-8,3333333333333428072
093018	12:48:16	1	igt	2	igt	49	25	1	1	3	pass	1	43	-5	-4	-4	-4	0	0	0	PASAR	1075	61,5384615384615401013	8	13	75	9	12	-13,4615384615384598987	61,5384615384615401013	8	13	75	9	12	-13,4615384615384598987
093018	12:48:16	1	igt	2	igt	51	26	1	1	1	play	2	45	-6	-4	-4	-4	100	0	100	Gana $<%abs(values.netchange)%>	1175	61,5384615384615401013	8	13	76,9230769230769340083	10	13	-15,3846153846153939071	61,5384615384615401013	8	13	76,9230769230769340083	10	13	-15,3846153846153939071
093018	12:48:16	1	igt	2	igt	53	27	1	1	4	play	2	34	-6	-4	-4	-5	50	0	50	Gana $<%abs(values.netchange)%>	1225	64,2857142857142918047	9	14	76,9230769230769340083	10	13	-12,6373626373626422037	64,2857142857142918047	9	14	76,9230769230769340083	10	13	-12,6373626373626422037
093018	12:48:16	1	igt	2	igt	55	28	1	1	4	pass	1	37	-6	-4	-4	-5	0	0	0	PASAR	1225	60	9	15	76,9230769230769340083	10	13	-16,9230769230769340083	60	9	15	76,9230769230769340083	10	13	-16,9230769230769340083
093018	12:48:16	1	igt	2	igt	57	29	1	1	1	play	2	32	-7	-4	-4	-5	100	300	-200	Pierde $<%abs(values.netchange)%>	1025	60	9	15	78,5714285714285693984	11	14	-18,5714285714285693984	60	9	15	78,5714285714285693984	11	14	-18,5714285714285693984
093018	12:48:16	1	igt	2	igt	59	30	1	1	3	play	2	54	-7	-4	-5	-5	50	0	50	Gana $<%abs(values.netchange)%>	1075	62,5	10	16	78,5714285714285693984	11	14	-16,0714285714285693984	62,5	10	16	78,5714285714285693984	11	14	-16,0714285714285693984
093018	12:48:16	1	igt	2	igt	61	31	1	1	2	play	2	42	-7	-5	-5	-5	100	0	100	Gana $<%abs(values.netchange)%>	1175	62,5	10	16	80	12	15	-17,5	62,5	10	16	80	12	15	-17,5
093018	12:48:16	1	igt	2	igt	63	32	1	1	3	pass	1	53	-7	-5	-5	-5	0	0	0	PASAR	1175	58,823529411764710062	10	17	80	12	15	-21,176470588235289938	58,823529411764710062	10	17	80	12	15	-21,176470588235289938
093018	12:48:16	1	igt	2	igt	65	33	1	1	1	pass	1	48	-7	-5	-5	-5	0	0	0	PASAR	1175	58,823529411764710062	10	17	75	12	16	-16,176470588235289938	58,823529411764710062	10	17	75	12	16	-16,176470588235289938
093018	12:48:16	1	igt	2	igt	67	34	1	1	2	play	2	31	-7	-6	-5	-5	100	0	100	Gana $<%abs(values.netchange)%>	1275	58,823529411764710062	10	17	76,4705882352941159752	13	17	-17,6470588235294059132	58,823529411764710062	10	17	76,4705882352941159752	13	17	-17,6470588235294059132
093018	12:48:16	1	igt	2	igt	69	35	1	1	4	play	2	34	-7	-6	-5	-6	50	0	50	Gana $<%abs(values.netchange)%>	1325	61,1111111111111142691	11	18	76,4705882352941159752	13	17	-15,3594771241830017061	61,1111111111111142691	11	18	76,4705882352941159752	13	17	-15,3594771241830017061
093018	12:48:16	1	igt	2	igt	71	36	1	1	3	play	2	35	-7	-6	-6	-6	50	75	-25	Pierde $<%abs(values.netchange)%>	1300	63,1578947368421026454	12	19	76,4705882352941159752	13	17	-13,3126934984520133298	63,1578947368421026454	12	19	76,4705882352941159752	13	17	-13,3126934984520133298
093018	12:48:16	1	igt	2	igt	73	37	1	1	4	pass	1	53	-7	-6	-6	-6	0	0	0	PASAR	1300	60	12	20	76,4705882352941159752	13	17	-16,4705882352941159752	60	12	20	76,4705882352941159752	13	17	-16,4705882352941159752
093018	12:48:16	1	igt	2	igt	75	38	1	1	2	pass	1	46	-7	-6	-6	-6	0	0	0	PASAR	1300	60	12	20	72,2222222222222143273	13	18	-12,2222222222222143273	60	12	20	72,2222222222222143273	13	18	-12,2222222222222143273
093018	12:48:16	1	igt	2	igt	77	39	1	1	3	play	2	50	-7	-6	-7	-6	50	75	-25	Pierde $<%abs(values.netchange)%>	1275	61,9047619047619051003	13	21	72,2222222222222143273	13	18	-10,317460317460309227	61,9047619047619051003	13	21	72,2222222222222143273	13	18	-10,317460317460309227
093018	12:48:16	1	igt	2	igt	79	40	1	1	1	pass	1	35	-7	-6	-7	-6	0	0	0	PASAR	1275	61,9047619047619051003	13	21	68,4210526315789451246	13	19	-6,5162907268170400243	61,9047619047619051003	13	21	68,4210526315789451246	13	19	-6,5162907268170400243
093018	12:48:16	1	igt	2	igt	81	41	1	1	4	pass	1	20	-7	-6	-7	-6	0	0	0	PASAR	1275	59,0909090909090934929	13	22	68,4210526315789451246	13	19	-9,3301435406698516317	59,0909090909090934929	13	22	68,4210526315789451246	13	19	-9,3301435406698516317
093018	12:48:16	1	igt	2	igt	83	42	1	1	1	pass	1	38	-7	-6	-7	-6	0	0	0	PASAR	1275	59,0909090909090934929	13	22	65	13	20	-5,9090909090909065071	59,0909090909090934929	13	22	65	13	20	-5,9090909090909065071
093018	12:48:16	1	igt	2	igt	85	43	1	1	2	pass	1	53	-7	-6	-7	-6	0	0	0	PASAR	1275	59,0909090909090934929	13	22	61,9047619047619051003	13	21	-2,8138528138528116074	59,0909090909090934929	13	22	61,9047619047619051003	13	21	-2,8138528138528116074
093018	12:48:16	1	igt	2	igt	87	44	1	1	4	play	2	35	-7	-6	-7	-7	50	0	50	Gana $<%abs(values.netchange)%>	1325	60,8695652173913117622	14	23	61,9047619047619051003	13	21	-1,0351966873705933381	60,8695652173913117622	14	23	61,9047619047619051003	13	21	-1,0351966873705933381
093018	12:48:16	1	igt	2	igt	89	45	1	1	1	pass	1	52	-7	-6	-7	-7	0	0	0	PASAR	1325	60,8695652173913117622	14	23	59,0909090909090934929	13	22	1,7786561264822182693	60,8695652173913117622	14	23	59,0909090909090934929	13	22	1,7786561264822182693
093018	12:48:16	1	igt	2	igt	91	46	1	1	3	play	2	35	-7	-6	-8	-7	50	50	0	No gana ni pierde dinero	1325	62,5	15	24	59,0909090909090934929	13	22	3,4090909090909065071	62,5	15	24	59,0909090909090934929	13	22	3,4090909090909065071
093018	12:48:16	1	igt	2	igt	93	47	1	1	2	play	2	46	-7	-7	-8	-7	100	0	100	Gana $<%abs(values.netchange)%>	1425	62,5	15	24	60,8695652173913117622	14	23	1,6304347826086882378	62,5	15	24	60,8695652173913117622	14	23	1,6304347826086882378
093018	12:48:16	1	igt	2	igt	95	48	1	1	2	pass	1	53	-7	-7	-8	-7	0	0	0	PASAR	1425	62,5	15	24	58,3333333333333357018	14	24	4,1666666666666642982	62,5	15	24	58,3333333333333357018	14	24	4,1666666666666642982
093018	12:48:16	1	igt	2	igt	97	49	1	1	4	play	2	30	-7	-7	-8	-8	50	0	50	Gana $<%abs(values.netchange)%>	1475	64	16	25	58,3333333333333357018	14	24	5,6666666666666642982	64	16	25	58,3333333333333357018	14	24	5,6666666666666642982
093018	12:48:16	1	igt	2	igt	99	50	1	1	1	play	2	35	-8	-7	-8	-8	100	350	-250	Pierde $<%abs(values.netchange)%>	1225	64	16	25	60	15	25	4	64	16	25	60	15	25	4
093018	12:48:16	1	igt	2	igt	101	51	1	1	3	play	2	52	-8	-7	-9	-8	50	0	50	Gana $<%abs(values.netchange)%>	1275	65,3846153846153868017	17	26	60	15	25	5,3846153846153868017	65,3846153846153868017	17	26	60	15	25	5,3846153846153868017
093018	12:48:16	1	igt	2	igt	103	52	1	1	3	play	2	41	-8	-7	-10	-8	50	0	50	Gana $<%abs(values.netchange)%>	1325	66,6666666666666571928	18	27	60	15	25	6,6666666666666571928	66,6666666666666571928	18	27	60	15	25	6,6666666666666571928
093018	12:48:16	1	igt	2	igt	105	53	1	1	1	pass	1	31	-8	-7	-10	-8	0	0	0	PASAR	1325	66,6666666666666571928	18	27	57,6923076923076862954	15	26	8,9743589743589708974	66,6666666666666571928	18	27	57,6923076923076862954	15	26	8,9743589743589708974
093018	12:48:16	1	igt	2	igt	107	54	1	1	4	pass	1	26	-8	-7	-10	-8	0	0	0	PASAR	1325	64,2857142857142918047	18	28	57,6923076923076862954	15	26	6,5934065934066055092	64,2857142857142918047	18	28	57,6923076923076862954	15	26	6,5934065934066055092
093018	12:48:16	1	igt	2	igt	109	55	1	1	3	pass	1	58	-8	-7	-10	-8	0	0	0	PASAR	1325	62,0689655172413807804	18	29	57,6923076923076862954	15	26	4,376657824933694485	62,0689655172413807804	18	29	57,6923076923076862954	15	26	4,376657824933694485
093018	12:48:16	1	igt	2	igt	111	56	1	1	2	pass	1	39	-8	-7	-10	-8	0	0	0	PASAR	1325	62,0689655172413807804	18	29	55,5555555555555571345	15	27	6,5134099616858236459	62,0689655172413807804	18	29	55,5555555555555571345	15	27	6,5134099616858236459
093018	12:48:16	1	igt	2	igt	113	57	1	1	2	pass	1	36	-8	-7	-10	-8	0	0	0	PASAR	1325	62,0689655172413807804	18	29	53,5714285714285693984	15	28	8,497536945812811382	62,0689655172413807804	18	29	53,5714285714285693984	15	28	8,497536945812811382
093018	12:48:16	1	igt	2	igt	115	58	1	1	4	pass	1	40	-8	-7	-10	-8	0	0	0	PASAR	1325	60	18	30	53,5714285714285693984	15	28	6,4285714285714306016	60	18	30	53,5714285714285693984	15	28	6,4285714285714306016
093018	12:48:16	1	igt	2	igt	117	59	1	1	3	play	2	54	-8	-7	-11	-8	50	75	-25	Pierde $<%abs(values.netchange)%>	1300	61,2903225806451601443	19	31	53,5714285714285693984	15	28	7,7188940092165907458	61,2903225806451601443	19	31	53,5714285714285693984	15	28	7,7188940092165907458
093018	12:48:16	1	igt	2	igt	119	60	1	1	3	pass	1	39	-8	-7	-11	-8	0	0	0	PASAR	1300	59,375	19	32	53,5714285714285693984	15	28	5,8035714285714306016	59,375	19	32	53,5714285714285693984	15	28	5,8035714285714306016
093018	12:48:16	1	igt	2	igt	121	61	1	1	1	pass	1	52	-8	-7	-11	-8	0	0	0	PASAR	1300	59,375	19	32	51,7241379310344839837	15	29	7,6508620689655160163	59,375	19	32	51,7241379310344839837	15	29	7,6508620689655160163
093018	12:48:16	1	igt	2	igt	123	62	1	1	2	play	2	53	-8	-8	-11	-8	100	0	100	Gana $<%abs(values.netchange)%>	1400	59,375	19	32	53,3333333333333357018	16	30	6,0416666666666642982	59,375	19	32	53,3333333333333357018	16	30	6,0416666666666642982
093018	12:48:16	1	igt	2	igt	125	63	1	1	4	play	2	36	-8	-8	-11	-9	50	0	50	Gana $<%abs(values.netchange)%>	1450	60,606060606060609075	20	33	53,3333333333333357018	16	30	7,2727272727272733732	60,606060606060609075	20	33	53,3333333333333357018	16	30	7,2727272727272733732
093018	12:48:16	1	igt	2	igt	127	64	1	1	3	pass	1	42	-8	-8	-11	-9	0	0	0	PASAR	1450	58,823529411764710062	20	34	53,3333333333333357018	16	30	5,4901960784313743602	58,823529411764710062	20	34	53,3333333333333357018	16	30	5,4901960784313743602
093018	12:48:16	1	igt	2	igt	129	65	1	1	1	pass	1	32	-8	-8	-11	-9	0	0	0	PASAR	1450	58,823529411764710062	20	34	51,612903225806448404	16	31	7,210626185958261658	58,823529411764710062	20	34	51,612903225806448404	16	31	7,210626185958261658
093018	12:48:16	1	igt	2	igt	131	66	1	1	2	play	2	48	-8	-9	-11	-9	100	0	100	Gana $<%abs(values.netchange)%>	1550	58,823529411764710062	20	34	53,125	17	32	5,698529411764710062	58,823529411764710062	20	34	53,125	17	32	5,698529411764710062
093018	12:48:16	1	igt	2	igt	133	67	1	1	2	pass	1	39	-8	-9	-11	-9	0	0	0	PASAR	1550	58,823529411764710062	20	34	51,5151515151515155821	17	33	7,3083778966131944799	58,823529411764710062	20	34	51,5151515151515155821	17	33	7,3083778966131944799
093018	12:48:16	1	igt	2	igt	135	68	1	1	2	pass	1	54	-8	-9	-11	-9	0	0	0	PASAR	1550	58,823529411764710062	20	34	50	17	34	8,823529411764710062	58,823529411764710062	20	34	50	17	34	8,823529411764710062
093018	12:48:16	1	igt	2	igt	137	69	1	1	4	pass	1	25	-8	-9	-11	-9	0	0	0	PASAR	1550	57,1428571428571387969	20	35	50	17	34	7,1428571428571387969	57,1428571428571387969	20	35	50	17	34	7,1428571428571387969
093018	12:48:16	1	igt	2	igt	139	70	1	1	1	pass	1	19	-8	-9	-11	-9	0	0	0	PASAR	1550	57,1428571428571387969	20	35	48,5714285714285693984	17	35	8,5714285714285693984	57,1428571428571387969	20	35	48,5714285714285693984	17	35	8,5714285714285693984
093018	12:48:16	1	igt	2	igt	141	71	1	1	1	pass	1	34	-8	-9	-11	-9	0	0	0	PASAR	1550	57,1428571428571387969	20	35	47,2222222222222214327	17	36	9,9206349206349173642	57,1428571428571387969	20	35	47,2222222222222214327	17	36	9,9206349206349173642
093018	12:48:16	1	igt	2	igt	143	72	1	1	4	pass	1	46	-8	-9	-11	-9	0	0	0	PASAR	1550	55,5555555555555571345	20	36	47,2222222222222214327	17	36	8,3333333333333357018	55,5555555555555571345	20	36	47,2222222222222214327	17	36	8,3333333333333357018
093018	12:48:16	1	igt	2	igt	145	73	1	1	1	play	2	50	-9	-9	-11	-9	100	0	100	Gana $<%abs(values.netchange)%>	1650	55,5555555555555571345	20	36	48,6486486486486526815	18	37	6,9069069069069044531	55,5555555555555571345	20	36	48,6486486486486526815	18	37	6,9069069069069044531
093018	12:48:16	1	igt	2	igt	147	74	1	1	1	play	2	35	-10	-9	-11	-9	100	0	100	Gana $<%abs(values.netchange)%>	1750	55,5555555555555571345	20	36	50	19	38	5,5555555555555571345	55,5555555555555571345	20	36	50	19	38	5,5555555555555571345
093018	12:48:16	1	igt	2	igt	149	75	1	1	1	pass	1	48	-10	-9	-11	-9	0	0	0	PASAR	1750	55,5555555555555571345	20	36	48,7179487179487153981	19	39	6,8376068376068417365	55,5555555555555571345	20	36	48,7179487179487153981	19	39	6,8376068376068417365
093018	12:48:16	1	igt	2	igt	151	76	1	1	3	play	2	55	-10	-9	-12	-9	50	75	-25	Pierde $<%abs(values.netchange)%>	1725	56,756756756756757909	21	37	48,7179487179487153981	19	39	8,0388080388080425109	56,756756756756757909	21	37	48,7179487179487153981	19	39	8,0388080388080425109
093018	12:48:16	1	igt	2	igt	153	77	1	1	3	play	2	38	-10	-9	-13	-9	50	0	50	Gana $<%abs(values.netchange)%>	1775	57,8947368421052672716	22	38	48,7179487179487153981	19	39	9,1767881241565518735	57,8947368421052672716	22	38	48,7179487179487153981	19	39	9,1767881241565518735
093018	12:48:16	1	igt	2	igt	155	78	1	1	2	pass	1	53	-10	-9	-13	-9	0	0	0	PASAR	1775	57,8947368421052672716	22	38	47,5	19	40	10,3947368421052672716	57,8947368421052672716	22	38	47,5	19	40	10,3947368421052672716
093018	12:48:16	1	igt	2	igt	157	79	1	1	4	pass	1	27	-10	-9	-13	-9	0	0	0	PASAR	1775	56,4102564102564087989	22	39	47,5	19	40	8,9102564102564087989	56,4102564102564087989	22	39	47,5	19	40	8,9102564102564087989
093018	12:48:16	1	igt	2	igt	159	80	1	1	4	pass	1	50	-10	-9	-13	-9	0	0	0	PASAR	1775	55,0000000000000071054	22	40	47,5	19	40	7,5000000000000071054	55,0000000000000071054	22	40	47,5	19	40	7,5000000000000071054
093018	12:48:16	1	igt	2	igt	161	81	1	1	2	play	2	41	-10	-10	-13	-9	100	0	100	Gana $<%abs(values.netchange)%>	1875	55,0000000000000071054	22	40	48,7804878048780494737	20	41	6,2195121951219576317	55,0000000000000071054	22	40	48,7804878048780494737	20	41	6,2195121951219576317
093018	12:48:16	1	igt	2	igt	163	82	1	1	2	pass	1	25	-10	-10	-13	-9	0	0	0	PASAR	1875	55,0000000000000071054	22	40	47,6190476190476132956	20	42	7,3809523809523938098	55,0000000000000071054	22	40	47,6190476190476132956	20	42	7,3809523809523938098
093018	12:48:16	1	igt	2	igt	165	83	1	1	4	play	2	49	-10	-10	-13	-10	50	0	50	Gana $<%abs(values.netchange)%>	1925	56,0975609756097597369	23	41	47,6190476190476132956	20	42	8,4785133565621464413	56,0975609756097597369	23	41	47,6190476190476132956	20	42	8,4785133565621464413
093018	12:48:16	1	igt	2	igt	167	84	1	1	3	play	2	54	-10	-10	-14	-10	50	0	50	Gana $<%abs(values.netchange)%>	1975	57,1428571428571387969	24	42	47,6190476190476132956	20	42	9,5238095238095255013	57,1428571428571387969	24	42	47,6190476190476132956	20	42	9,5238095238095255013
093018	12:48:16	1	igt	2	igt	169	85	1	1	4	play	2	30	-10	-10	-14	-11	50	0	50	Gana $<%abs(values.netchange)%>	2025	58,1395348837209340331	25	43	47,6190476190476132956	20	42	10,5204872646733207375	58,1395348837209340331	25	43	47,6190476190476132956	20	42	10,5204872646733207375
093018	12:48:16	1	igt	2	igt	171	86	1	1	4	play	2	50	-10	-10	-14	-12	50	250	-200	Pierde $<%abs(values.netchange)%>	1825	59,0909090909090934929	26	44	47,6190476190476132956	20	42	11,4718614718614801973	59,0909090909090934929	26	44	47,6190476190476132956	20	42	11,4718614718614801973
093018	12:48:16	1	igt	2	igt	173	87	1	1	2	play	2	49	-10	-11	-14	-12	100	0	100	Gana $<%abs(values.netchange)%>	1925	59,0909090909090934929	26	44	48,8372093023255757771	21	43	10,2536997885835177158	59,0909090909090934929	26	44	48,8372093023255757771	21	43	10,2536997885835177158
093018	12:48:16	1	igt	2	igt	175	88	1	1	1	play	2	47	-11	-11	-14	-12	100	0	100	Gana $<%abs(values.netchange)%>	2025	59,0909090909090934929	26	44	50	22	44	9,0909090909090934929	59,0909090909090934929	26	44	50	22	44	9,0909090909090934929
093018	12:48:16	1	igt	2	igt	177	89	1	1	3	pass	1	43	-11	-11	-14	-12	0	0	0	PASAR	2025	57,7777777777777714618	26	45	50	22	44	7,7777777777777714618	57,7777777777777714618	26	45	50	22	44	7,7777777777777714618
093018	12:48:16	1	igt	2	igt	179	90	1	1	4	pass	1	42	-11	-11	-14	-12	0	0	0	PASAR	2025	56,521739130434781373	26	46	50	22	44	6,521739130434781373	56,521739130434781373	26	46	50	22	44	6,521739130434781373
093018	12:48:16	1	igt	2	igt	181	91	1	1	2	play	2	54	-11	-12	-14	-12	100	0	100	Gana $<%abs(values.netchange)%>	2125	56,521739130434781373	26	46	51,1111111111111071637	23	45	5,4106280193236742093	56,521739130434781373	26	46	51,1111111111111071637	23	45	5,4106280193236742093
093018	12:48:16	1	igt	2	igt	183	92	1	1	1	pass	1	49	-11	-12	-14	-12	0	0	0	PASAR	2125	56,521739130434781373	26	46	50	23	46	6,521739130434781373	56,521739130434781373	26	46	50	23	46	6,521739130434781373
093018	12:48:16	1	igt	2	igt	185	93	1	1	3	pass	1	59	-11	-12	-14	-12	0	0	0	PASAR	2125	55,319148936170215336	26	47	50	23	46	5,319148936170215336	55,319148936170215336	26	47	50	23	46	5,319148936170215336
093018	12:48:16	1	igt	2	igt	187	94	1	1	1	pass	1	38	-11	-12	-14	-12	0	0	0	PASAR	2125	55,319148936170215336	26	47	48,9361702127659583539	23	47	6,3829787234042569821	55,319148936170215336	26	47	48,9361702127659583539	23	47	6,3829787234042569821
093018	12:48:16	1	igt	2	igt	189	95	1	1	2	play	2	41	-11	-13	-14	-12	100	1250	-1150	Pierde $<%abs(values.netchange)%>	975	55,319148936170215336	26	47	50	24	48	5,319148936170215336	55,319148936170215336	26	47	50	24	48	5,319148936170215336
093018	12:48:16	1	igt	2	igt	191	96	1	1	3	pass	1	52	-11	-13	-14	-12	0	0	0	PASAR	975	54,1666666666666642982	26	48	50	24	48	4,1666666666666642982	54,1666666666666642982	26	48	50	24	48	4,1666666666666642982
093018	12:48:16	1	igt	2	igt	193	97	1	1	2	pass	1	48	-11	-13	-14	-12	0	0	0	PASAR	975	54,1666666666666642982	26	48	48,9795918367346914124	24	49	5,1870748299319728858	54,1666666666666642982	26	48	48,9795918367346914124	24	49	5,1870748299319728858
093018	12:48:16	1	igt	2	igt	195	98	1	1	4	play	2	43	-11	-13	-14	-13	50	0	50	Gana $<%abs(values.netchange)%>	1025	55,1020408163265216217	27	49	48,9795918367346914124	24	49	6,1224489795918302093	55,1020408163265216217	27	49	48,9795918367346914124	24	49	6,1224489795918302093
093018	12:48:16	1	igt	2	igt	197	99	1	1	4	play	2	60	-11	-13	-14	-14	50	0	50	Gana $<%abs(values.netchange)%>	1075	56,0000000000000071054	28	50	48,9795918367346914124	24	49	7,020408163265315693	56,0000000000000071054	28	50	48,9795918367346914124	24	49	7,020408163265315693
093018	12:48:16	1	igt	2	igt	199	100	1	1	2	play	2	55	-11	-14	-14	-14	100	0	100	Gana $<%abs(values.netchange)%>	1175	56,0000000000000071054	28	50	50	25	50	6,0000000000000071054	56,0000000000000071054	28	50	50	25	50	6,0000000000000071054
093018	12:48:16	1	igt	2	igt	201	101	1	1	1	pass	1	33	-11	-14	-14	-14	0	0	0	PASAR	1175	56,0000000000000071054	28	50	49,0196078431372512796	25	51	6,9803921568627558258	56,0000000000000071054	28	50	49,0196078431372512796	25	51	6,9803921568627558258
093018	12:48:16	1	igt	2	igt	203	102	1	1	4	play	2	34	-11	-14	-14	-15	50	0	50	Gana $<%abs(values.netchange)%>	1225	56,8627450980392126212	29	51	49,0196078431372512796	25	51	7,8431372549019613416	56,8627450980392126212	29	51	49,0196078431372512796	25	51	7,8431372549019613416
093018	12:48:16	1	igt	2	igt	205	103	1	1	3	play	2	51	-11	-14	-15	-15	50	50	0	No gana ni pierde dinero	1225	57,6923076923076862954	30	52	49,0196078431372512796	25	51	8,6726998491704350158	57,6923076923076862954	30	52	49,0196078431372512796	25	51	8,6726998491704350158
093018	12:48:16	1	igt	2	igt	207	104	1	1	4	pass	1	42	-11	-14	-15	-15	0	0	0	PASAR	1225	56,6037735849056602433	30	53	49,0196078431372512796	25	51	7,5841657417684089637	56,6037735849056602433	30	53	49,0196078431372512796	25	51	7,5841657417684089637
093018	12:48:16	1	igt	2	igt	209	105	1	1	2	pass	1	50	-11	-14	-15	-15	0	0	0	PASAR	1225	56,6037735849056602433	30	53	48,0769230769230802025	25	52	8,5268505079825800408	56,6037735849056602433	30	53	48,0769230769230802025	25	52	8,5268505079825800408
093018	12:48:16	1	igt	2	igt	211	106	1	1	4	pass	1	38	-11	-14	-15	-15	0	0	0	PASAR	1225	55,5555555555555571345	30	54	48,0769230769230802025	25	52	7,478632478632476932	55,5555555555555571345	30	54	48,0769230769230802025	25	52	7,478632478632476932
093018	12:48:16	1	igt	2	igt	213	107	1	1	2	pass	1	33	-11	-14	-15	-15	0	0	0	PASAR	1225	55,5555555555555571345	30	54	47,1698113207547180536	25	53	8,3857442348008390809	55,5555555555555571345	30	54	47,1698113207547180536	25	53	8,3857442348008390809
093018	12:48:16	1	igt	2	igt	215	108	1	1	1	pass	1	38	-11	-14	-15	-15	0	0	0	PASAR	1225	55,5555555555555571345	30	54	46,2962962962962976121	25	54	9,2592592592592595224	55,5555555555555571345	30	54	46,2962962962962976121	25	54	9,2592592592592595224
093018	12:48:16	1	igt	2	igt	217	109	1	1	1	play	2	43	-12	-14	-15	-15	100	150	-50	Pierde $<%abs(values.netchange)%>	1175	55,5555555555555571345	30	54	47,2727272727272733732	26	55	8,2828282828282837613	55,5555555555555571345	30	54	47,2727272727272733732	26	55	8,2828282828282837613
093018	12:48:16	1	igt	2	igt	219	110	1	1	1	pass	1	42	-12	-14	-15	-15	0	0	0	PASAR	1175	55,5555555555555571345	30	54	46,4285714285714306016	26	56	9,126984126984126533	55,5555555555555571345	30	54	46,4285714285714306016	26	56	9,126984126984126533
093018	12:48:16	1	igt	2	igt	221	111	1	1	3	pass	1	38	-12	-14	-15	-15	0	0	0	PASAR	1175	54,545454545454539641	30	55	46,4285714285714306016	26	56	8,1168831168831090395	54,545454545454539641	30	55	46,4285714285714306016	26	56	8,1168831168831090395
093018	12:48:16	1	igt	2	igt	223	112	1	1	3	pass	1	54	-12	-14	-15	-15	0	0	0	PASAR	1175	53,5714285714285693984	30	56	46,4285714285714306016	26	56	7,1428571428571387969	53,5714285714285693984	30	56	46,4285714285714306016	26	56	7,1428571428571387969
093018	12:48:16	1	igt	2	igt	225	113	1	1	3	play	2	52	-12	-14	-16	-15	50	0	50	Gana $<%abs(values.netchange)%>	1225	54,3859649122807056187	31	57	46,4285714285714306016	26	56	7,9573934837092750172	54,3859649122807056187	31	57	46,4285714285714306016	26	56	7,9573934837092750172
093018	12:48:16	1	igt	2	igt	227	114	1	1	1	pass	1	51	-12	-14	-16	-15	0	0	0	PASAR	1225	54,3859649122807056187	31	57	45,6140350877192943813	26	57	8,7719298245614112375	54,3859649122807056187	31	57	45,6140350877192943813	26	57	8,7719298245614112375
093018	12:48:16	1	igt	2	igt	229	115	1	1	2	pass	1	31	-12	-14	-16	-15	0	0	0	PASAR	1225	54,3859649122807056187	31	57	44,8275862068965551543	26	58	9,5583787053841504644	54,3859649122807056187	31	57	44,8275862068965551543	26	58	9,5583787053841504644
093018	12:48:16	1	igt	2	igt	231	116	1	1	1	play	2	49	-13	-14	-16	-15	100	350	-250	Pierde $<%abs(values.netchange)%>	975	54,3859649122807056187	31	57	45,7627118644067820696	27	59	8,6232530478739235491	54,3859649122807056187	31	57	45,7627118644067820696	27	59	8,6232530478739235491
093018	12:48:16	1	igt	2	igt	233	117	1	1	4	play	2	41	-13	-14	-16	-16	50	0	50	Gana $<%abs(values.netchange)%>	1025	55,1724137931034448457	32	58	45,7627118644067820696	27	59	9,409701928696662776	55,1724137931034448457	32	58	45,7627118644067820696	27	59	9,409701928696662776
093018	12:48:16	1	igt	2	igt	235	118	1	1	3	play	2	29	-13	-14	-17	-16	50	50	0	No gana ni pierde dinero	1025	55,9322033898305051025	33	59	45,7627118644067820696	27	59	10,1694915254237230329	55,9322033898305051025	33	59	45,7627118644067820696	27	59	10,1694915254237230329
093018	12:48:16	1	igt	2	igt	237	119	1	1	2	pass	1	39	-13	-14	-17	-16	0	0	0	PASAR	1025	55,9322033898305051025	33	59	45	27	60	10,9322033898305051025	55,9322033898305051025	33	59	45	27	60	10,9322033898305051025
093018	12:48:16	1	igt	2	igt	239	120	1	1	3	pass	1	46	-13	-14	-17	-16	0	0	0	PASAR	1025	55,0000000000000071054	33	60	45	27	60	10,0000000000000071054	55,0000000000000071054	33	60	45	27	60	10,0000000000000071054
